Folder: SolidProps/SolidProps/lib (part 4)

File: COPPER_PURE.csv
T/K,rho/(kg/m3),cp/(J/(kg.K)),K/(W/(m.K)),alpha_thermal/(1/K),resistivity/(ohm.m)
1,8960,0.012,93.6,2.4325e-08,2.61E-10
2.5,8960,0.0389,234,6.51361e-08,2.61E-10
4,8960,0.0904,374,1.12922e-07,2.61E-10
5.5,8960,0.177,515,1.67486e-07,2.61E-10
7,8960,0.321,653,2.28632e-07,2.61E-10
8.5,8960,0.545,790,2.96165e-07,2.61E-10
10,8960,0.87,922,3.69895e-07,2.62E-10
11.5,8960,1.3,1050,4.49631e-07,2.62E-10
13,8960,1.88,1170,5.35186e-07,2.62E-10
14.5,8960,2.63,1280,6.26374e-07,2.63E-10
16,8960,3.58,1380,7.23011e-07,2.65E-10
17.5,8960,4.75,1470,8.24916e-07,2.67E-10
19,8960,6.17,1550,9.31908e-07,2.7E-10
20.5,8960,7.93,1600,1.04381e-06,2.74E-10
22,8960,10.1,1640,1.16045e-06,2.79E-10
23.5,8960,12.6,1660,1.28165e-06,2.85E-10
25,8960,15.3,1660,1.40723e-06,2.92E-10
26.5,8960,18.4,1660,1.53704e-06,3.01E-10
28,8960,21.7,1640,1.67089e-06,3.12E-10
29.5,8960,25.2,1620,1.80863e-06,3.25E-10
31,8960,29.4,1580,1.9501e-06,3.41E-10
32.5,8960,33.8,1540,2.09512e-06,3.59E-10
34,8960,38.5,1480,2.24354e-06,3.8E-10
35.5,8960,43.4,1430,2.39521e-06,4.04E-10
37,8960,48.5,1370,2.54996e-06,4.3E-10
38.5,8960,53.7,1300,2.70764e-06,4.6E-10
40,8960,59,1240,2.8681e-06,4.92E-10
41.5,8960,64.2,1180,3.0312e-06,5.29E-10
43,8960,69.4,1130,3.19678e-06,5.7E-10
44.5,8960,74.7,1080,3.36469e-06,6.13E-10
46,8960,80.1,1030,3.5348e-06,6.59E-10
47.5,8960,85.6,980,3.70696e-06,7.08E-10
49,8960,91.2,934,3.88103e-06,7.6E-10
50.5,8960,97,891,4.05688e-06,8.15E-10
52,8960,103,853,4.23436e-06,8.72E-10
53.5,8960,109,817,4.41335e-06,9.32E-10
55,8960,115,784,4.5937e-06,9.94E-10
56.5,8960,121,754,4.77531e-06,0.00000000106
58,8960,127,726,4.95802e-06,0.00000000113
59.5,8960,133,700,5.14173e-06,0.0000000012
61,8960,139,676,5.3263e-06,0.00000000127
62.5,8960,144,655,5.51161e-06,0.00000000135
64,8960,149,635,5.69754e-06,0.00000000142
65.5,8960,155,617,5.88398e-06,0.00000000151
67,8960,160,601,6.07081e-06,0.00000000159
68.5,8960,165,586,6.25791e-06,0.00000000167
70,8960,170,573,6.44518e-06,0.00000000176
71.5,8960,175,560,6.6325e-06,0.00000000185
73,8960,181,548,6.81976e-06,0.00000000195
74.5,8960,186,538,7.00687e-06,0.00000000204
76,8960,192,528,7.19371e-06,0.00000000214
77.5,8960,197,520,7.38018e-06,0.00000000224
79,8960,202,512,7.56619e-06,0.00000000233
80.5,8960,206,505,7.75163e-06,0.00000000244
82,8960,211,498,7.93642e-06,0.00000000254
83.5,8960,215,492,8.12044e-06,0.00000000264
85,8960,218,486,8.30363e-06,0.00000000275
86.5,8960,222,481,8.48587e-06,0.00000000285
88,8960,226,476,8.66709e-06,0.00000000296
89.5,8960,229,472,8.8472e-06,0.00000000307
91,8960,232,468,9.02612e-06,0.00000000318
92.5,8960,236,464,9.20376e-06,0.00000000328
94,8960,239,460,9.38005e-06,0.00000000339
95.5,8960,242,457,9.5549e-06,0.0000000035
97,8960,245,454,9.72824e-06,0.00000000361
98.5,8960,248,452,9.9e-06,0.00000000372
100,8960,251,449,1.00701e-05,0.00000000384
101.5,8960,254,446,1.02385e-05,0.00000000395
103,8960,257,444,1.04051e-05,0.00000000406
104.5,8960,260,441,1.05698e-05,0.00000000416
106,8960,262,439,1.07326e-05,0.00000000427
107.5,8960,265,437,1.08934e-05,0.00000000438
109,8960,268,435,1.10521e-05,0.00000000449
110.5,8960,270,433,1.12088e-05,0.0000000046
112,8960,273,431,1.13633e-05,0.00000000471
113.5,8960,276,429,1.15156e-05,0.00000000482
115,8960,278,428,1.16656e-05,0.00000000493
116.5,8960,280,426,1.18133e-05,0.00000000504
118,8960,283,425,1.19586e-05,0.00000000515
119.5,8960,285,424,1.21016e-05,0.00000000526
121,8960,287,422,1.2242e-05,0.00000000537
122.5,8960,290,421,1.238e-05,0.00000000548
124,8960,292,420,1.25154e-05,0.00000000559
125.5,8960,294,419,1.26483e-05,0.00000000569
127,8960,296,418,1.27786e-05,0.0000000058
128.5,8960,298,417,1.29062e-05,0.00000000591
130,8960,300,417,1.30311e-05,0.00000000602
131.5,8960,302,416,1.31533e-05,0.00000000613
133,8960,304,415,1.32728e-05,0.00000000624
134.5,8960,306,415,1.33895e-05,0.00000000634
136,8960,308,414,1.35035e-05,0.00000000645
137.5,8960,310,414,1.36146e-05,0.00000000656
139,8960,311,413,1.37229e-05,0.00000000667
140.5,8960,313,413,1.38283e-05,0.00000000678
142,8960,315,413,1.39309e-05,0.00000000688
143.5,8960,316,413,1.40307e-05,0.00000000699
145,8960,318,412,1.41275e-05,0.0000000071
146.5,8960,319,412,1.42214e-05,0.0000000072
148,8960,321,412,1.43124e-05,0.00000000731
149.5,8960,323,412,1.44005e-05,0.00000000742
151,8960,324,412,1.44814e-05,0.00000000752
152.5,8960,325,411,1.45505e-05,0.00000000763
154,8960,327,410,1.46167e-05,0.00000000773
155.5,8960,328,410,1.46802e-05,0.00000000783
157,8960,329,409,1.47408e-05,0.00000000794
158.5,8960,331,409,1.47987e-05,0.00000000804
160,8960,332,409,1.48539e-05,0.00000000815
161.5,8960,333,408,1.49064e-05,0.00000000825
163,8960,334,408,1.49563e-05,0.00000000835
164.5,8960,336,407,1.50036e-05,0.00000000845
166,8960,337,407,1.50485e-05,0.00000000856
167.5,8960,338,407,1.50908e-05,0.00000000866
169,8960,339,406,1.51308e-05,0.00000000876
170.5,8960,340,406,1.51684e-05,0.00000000887
172,8960,341,406,1.52037e-05,0.00000000897
173.5,8960,342,405,1.52368e-05,0.00000000907
175,8960,343,405,1.52677e-05,0.00000000917
176.5,8960,344,405,1.52964e-05,0.00000000927
178,8960,345,405,1.53231e-05,0.00000000938
179.5,8960,346,404,1.53478e-05,0.00000000948
181,8960,347,404,1.53705e-05,0.00000000958
182.5,8960,347,404,1.53913e-05,0.00000000968
184,8960,348,404,1.54104e-05,0.00000000978
185.5,8960,349,404,1.54276e-05,0.00000000988
187,8960,350,404,1.54432e-05,0.00000000998
188.5,8960,351,403,1.54571e-05,0.0000000101
190,8960,351,403,1.54695e-05,0.0000000102
191.5,8960,352,403,1.54803e-05,0.0000000103
193,8960,353,403,1.54897e-05,0.0000000104
194.5,8960,354,403,1.54977e-05,0.0000000105
196,8960,354,403,1.55045e-05,0.0000000106
197.5,8960,355,403,1.55099e-05,0.0000000107
199,8960,356,403,1.55142e-05,0.0000000108
200.5,8960,356,402,1.55174e-05,0.0000000109
202,8960,357,402,1.55195e-05,0.000000011
203.5,8960,358,402,1.55207e-05,0.0000000111
205,8960,358,402,1.55209e-05,0.0000000112
206.5,8960,359,402,1.55203e-05,0.0000000113
208,8960,360,402,1.55188e-05,0.0000000114
209.5,8960,360,401,1.55166e-05,0.0000000115
211,8960,361,401,1.55158e-05,0.0000000116
212.5,8960,362,401,1.55158e-05,0.0000000117
214,8960,362,401,1.55158e-05,0.0000000118
215.5,8960,363,401,1.55158e-05,0.0000000119
217,8960,363,401,1.55158e-05,0.000000012
218.5,8960,364,400,1.55158e-05,0.0000000121
220,8960,364,400,1.55158e-05,0.0000000122
221.5,8960,365,400,1.55158e-05,0.0000000123
223,8960,366,400,1.55158e-05,0.0000000124
224.5,8960,366,400,1.55158e-05,0.0000000125
226,8960,367,400,1.55158e-05,0.0000000126
227.5,8960,367,399,1.55158e-05,0.0000000127
229,8960,368,399,1.55158e-05,0.0000000128
230.5,8960,368,399,1.55158e-05,0.0000000129
232,8960,369,399,1.55158e-05,0.000000013
233.5,8960,369,399,1.55158e-05,0.0000000131
235,8960,370,399,1.55158e-05,0.0000000132
236.5,8960,370,399,1.55158e-05,0.0000000133
238,8960,371,399,1.55158e-05,0.0000000134
239.5,8960,371,398,1.55158e-05,0.0000000135
241,8960,371,398,1.55158e-05,0.0000000136
242.5,8960,372,398,1.55158e-05,0.0000000137
244,8960,372,398,1.55158e-05,0.0000000138
245.5,8960,373,398,1.55158e-05,0.0000000139
247,8960,373,398,1.55158e-05,0.000000014
248.5,8960,374,398,1.55158e-05,0.0000000141
250,8960,374,398,1.55158e-05,0.0000000142
251.5,8960,374,397,1.55158e-05,0.0000000143
253,8960,375,397,1.55158e-05,0.0000000144
254.5,8960,375,397,1.55158e-05,0.0000000145
256,8960,376,397,1.55158e-05,0.0000000146
257.5,8960,376,397,1.55158e-05,0.0000000147
259,8960,376,397,1.55158e-05,0.0000000148
260.5,8960,377,397,1.55158e-05,0.0000000149
262,8960,377,397,1.55158e-05,0.000000015
263.5,8960,378,396,1.55158e-05,0.0000000151
265,8960,378,396,1.55158e-05,0.0000000152
266.5,8960,378,396,1.55158e-05,0.0000000153
268,8960,379,396,1.55158e-05,0.0000000154
269.5,8960,379,396,1.55158e-05,0.0000000155
271,8960,380,396,1.55158e-05,0.0000000156
272.5,8960,380,396,1.55158e-05,0.0000000157
274,8960,380,396,1.55158e-05,0.0000000158
275.5,8960,381,396,1.55158e-05,0.0000000159
277,8960,381,395,1.55158e-05,0.000000016
278.5,8960,381,395,1.55158e-05,0.0000000161
280,8960,382,395,1.55158e-05,0.0000000162
281.5,8960,382,395,1.55158e-05,0.0000000163
283,8960,382,395,1.55158e-05,0.0000000164
284.5,8960,383,395,1.55158e-05,0.0000000165
286,8960,383,395,1.55158e-05,0.0000000166
287.5,8960,383,395,1.55158e-05,0.0000000167
289,8960,384,395,1.55158e-05,0.0000000168
290.5,8960,384,394,1.55158e-05,0.0000000169
292,8960,384,394,1.55158e-05,0.000000017
293.5,8960,385,394,1.55158e-05,0.0000000171
295,8960,385,394,1.55158e-05,0.0000000172
296.5,8960,385,394,1.55158e-05,0.0000000173
298,8960,386,394,1.55158e-05,0.0000000174
299.5,8960,386,394,1.55158e-05,0.0000000175
300,8960,386,394,1.55158e-05,0.0000000175

File: COPPER_ZINC_90_10.csv
T/K,rho/(kg/m3),cp/(J/(kg.K)),K/(W/(m.K)),alpha_thermal/(1/K),resistivity/(ohm.m)
1,8802,0.0111,1.11,0,0.0000000211
2.5,8802,0.0409,3.58,0,0.0000000211
4,8802,0.0964,6.57,0,0.0000000211
5.5,8802,0.205,9.54,0,0.0000000211
7,8802,0.386,12.5,0,0.0000000211
8.5,8802,0.66,15.5,0,0.0000000211
10,8802,1.05,18.5,0,0.0000000211
11.5,8802,1.52,21.9,5.16524e-08,0.000000021
13,8802,2.14,25.4,1.33293e-07,0.000000021
14.5,8802,2.95,29,1.95886e-07,0.000000021
16,8802,3.98,32.6,2.75653e-07,0.000000021
17.5,8802,5.25,36.1,3.71516e-07,0.000000021
19,8802,6.8,39.7,4.82439e-07,0.000000021
20.5,8802,8.76,43.1,6.0742e-07,0.000000021
22,8802,11.2,46.2,7.45494e-07,0.000000021
23.5,8802,14,49.3,8.9573e-07,0.000000021
25,8802,17.1,52.2,1.05723e-06,0.0000000211
26.5,8802,20.5,54.9,1.22914e-06,0.0000000211
28,8802,24.2,57.6,1.41062e-06,0.0000000211
29.5,8802,28.2,60.1,1.60088e-06,0.0000000211
31,8802,32.5,62.2,1.79916e-06,0.0000000212
32.5,8802,37,64.1,2.00471e-06,0.0000000212
34,8802,41.8,65.9,2.21683e-06,0.0000000213
35.5,8802,46.8,67.6,2.43486e-06,0.0000000213
37,8802,52,69.1,2.65813e-06,0.0000000214
38.5,8802,57.4,70.6,2.88604e-06,0.0000000214
40,8802,63.1,72,3.11799e-06,0.0000000215
41.5,8802,69.1,73.4,3.35342e-06,0.0000000216
43,8802,75.2,74.8,3.59178e-06,0.0000000216
44.5,8802,81.5,76.1,3.83257e-06,0.0000000217
46,8802,87.8,77.4,4.07529e-06,0.0000000218
47.5,8802,94.2,78.6,4.31949e-06,0.0000000219
49,8802,101,79.8,4.56472e-06,0.0000000219
50.5,8802,107,81,4.81056e-06,0.000000022
52,8802,113,82.2,5.05662e-06,0.0000000221
53.5,8802,118,83.3,5.30252e-06,0.0000000222
55,8802,124,84.4,5.54791e-06,0.0000000223
56.5,8802,130,85.5,5.79246e-06,0.0000000224
58,8802,135,86.6,6.03585e-06,0.0000000225
59.5,8802,141,87.7,6.27778e-06,0.0000000226
61,8802,146,88.8,6.518e-06,0.0000000227
62.5,8802,152,89.8,6.75622e-06,0.0000000228
64,8802,157,90.9,6.99223e-06,0.0000000229
65.5,8802,162,91.9,7.22578e-06,0.000000023
67,8802,168,92.9,7.45669e-06,0.0000000232
68.5,8802,173,93.9,7.68475e-06,0.0000000233
70,8802,178,94.9,7.9098e-06,0.0000000234
71.5,8802,183,95.8,8.13166e-06,0.0000000235
73,8802,188,96.7,8.35021e-06,0.0000000236
74.5,8802,192,97.6,8.5653e-06,0.0000000237
76,8802,197,98.5,8.77681e-06,0.0000000239
77.5,8802,201,99.3,8.98465e-06,0.000000024
79,8802,206,100,9.18871e-06,0.0000000241
80.5,8802,210,101,9.38893e-06,0.0000000242
82,8802,214,102,9.58521e-06,0.0000000243
83.5,8802,219,103,9.77752e-06,0.0000000244
85,8802,223,104,9.9658e-06,0.0000000245
86.5,8802,227,105,1.015e-05,0.0000000246
88,8802,231,106,1.03301e-05,0.0000000248
89.5,8802,234,107,1.05061e-05,0.0000000249
91,8802,238,108,1.0678e-05,0.000000025
92.5,8802,242,109,1.08457e-05,0.0000000251
94,8802,245,110,1.10093e-05,0.0000000252
95.5,8802,249,110,1.11688e-05,0.0000000253
97,8802,252,111,1.13242e-05,0.0000000255
98.5,8802,256,112,1.14756e-05,0.0000000256
100,8802,259,113,1.16229e-05,0.0000000257
101.5,8802,262,114,1.17662e-05,0.0000000258
103,8802,265,114,1.19056e-05,0.0000000259
104.5,8802,268,115,1.20411e-05,0.0000000261
106,8802,271,116,1.21728e-05,0.0000000262
107.5,8802,274,117,1.23007e-05,0.0000000263
109,8802,277,118,1.24248e-05,0.0000000264
110.5,8802,279,118,1.25453e-05,0.0000000265
112,8802,282,119,1.26623e-05,0.0000000266
113.5,8802,284,120,1.27758e-05,0.0000000268
115,8802,287,121,1.28858e-05,0.0000000269
116.5,8802,289,121,1.29925e-05,0.000000027
118,8802,291,122,1.30959e-05,0.0000000271
119.5,8802,293,123,1.31962e-05,0.0000000272
121,8802,295,124,1.32934e-05,0.0000000273
122.5,8802,297,124,1.33876e-05,0.0000000275
124,8802,299,125,1.34789e-05,0.0000000276
125.5,8802,301,126,1.35674e-05,0.0000000277
127,8802,303,127,1.36532e-05,0.0000000278
128.5,8802,305,127,1.37364e-05,0.0000000279
130,8802,307,128,1.3817e-05,0.000000028
131.5,8802,308,129,1.38952e-05,0.0000000281
133,8802,310,129,1.3971e-05,0.0000000283
134.5,8802,311,130,1.40446e-05,0.0000000284
136,8802,313,131,1.4116e-05,0.0000000285
137.5,8802,314,131,1.41854e-05,0.0000000286
139,8802,316,132,1.42528e-05,0.0000000287
140.5,8802,317,133,1.43183e-05,0.0000000288
142,8802,318,133,1.4382e-05,0.000000029
143.5,8802,320,134,1.4444e-05,0.0000000291
145,8802,321,135,1.45044e-05,0.0000000292
146.5,8802,322,135,1.45633e-05,0.0000000293
148,8802,323,136,1.46207e-05,0.0000000294
149.5,8802,324,137,1.46767e-05,0.0000000295
151,8802,326,137,1.47314e-05,0.0000000296
152.5,8802,327,138,1.47849e-05,0.0000000298
154,8802,328,139,1.48372e-05,0.0000000299
155.5,8802,329,139,1.48885e-05,0.00000003
157,8802,331,140,1.49387e-05,0.0000000301
158.5,8802,332,141,1.4988e-05,0.0000000302
160,8802,333,141,1.50365e-05,0.0000000303
161.5,8802,334,142,1.50841e-05,0.0000000304
163,8802,335,143,1.51309e-05,0.0000000306
164.5,8802,336,143,1.5177e-05,0.0000000307
166,8802,337,144,1.52225e-05,0.0000000308
167.5,8802,338,145,1.52674e-05,0.0000000309
169,8802,339,145,1.53117e-05,0.000000031
170.5,8802,340,146,1.53555e-05,0.0000000311
172,8802,341,147,1.53988e-05,0.0000000312
173.5,8802,342,147,1.54416e-05,0.0000000314
175,8802,343,148,1.54841e-05,0.0000000315
176.5,8802,344,149,1.55261e-05,0.0000000316
178,8802,345,149,1.55678e-05,0.0000000317
179.5,8802,345,150,1.56091e-05,0.0000000318
181,8802,346,150,1.56502e-05,0.0000000319
182.5,8802,347,151,1.56909e-05,0.0000000321
184,8802,348,152,1.57314e-05,0.0000000322
185.5,8802,348,152,1.57715e-05,0.0000000323
187,8802,349,153,1.58115e-05,0.0000000324
188.5,8802,350,153,1.58511e-05,0.0000000325
190,8802,351,154,1.58905e-05,0.0000000326
191.5,8802,351,155,1.59296e-05,0.0000000327
193,8802,352,155,1.59684e-05,0.0000000329
194.5,8802,353,156,1.6007e-05,0.000000033
196,8802,353,156,1.60453e-05,0.0000000331
197.5,8802,354,157,1.60833e-05,0.0000000332
199,8802,354,158,1.6121e-05,0.0000000333
200.5,8802,355,158,1.61584e-05,0.0000000334
202,8802,356,159,1.61954e-05,0.0000000336
203.5,8802,356,159,1.62321e-05,0.0000000337
205,8802,357,160,1.62684e-05,0.0000000338
206.5,8802,358,160,1.63042e-05,0.0000000339
208,8802,358,161,1.63397e-05,0.000000034
209.5,8802,359,162,1.63746e-05,0.0000000341
211,8802,360,162,1.64091e-05,0.0000000343
212.5,8802,360,163,1.64431e-05,0.0000000344
214,8802,361,163,1.64765e-05,0.0000000345
215.5,8802,362,164,1.65093e-05,0.0000000346
217,8802,362,164,1.65415e-05,0.0000000347
218.5,8802,363,165,1.65731e-05,0.0000000348
220,8802,363,165,1.6604e-05,0.000000035
221.5,8802,364,166,1.66342e-05,0.0000000351
223,8802,364,167,1.66637e-05,0.0000000352
224.5,8802,365,167,1.66923e-05,0.0000000353
226,8802,365,168,1.67202e-05,0.0000000354
227.5,8802,366,168,1.67473e-05,0.0000000355
229,8802,367,169,1.67735e-05,0.0000000357
230.5,8802,367,169,1.67988e-05,0.0000000358
232,8802,367,170,1.68232e-05,0.0000000359
233.5,8802,368,170,1.68467e-05,0.000000036
235,8802,368,171,1.68693e-05,0.0000000361
236.5,8802,369,171,1.68908e-05,0.0000000362
238,8802,369,172,1.69114e-05,0.0000000364
239.5,8802,370,172,1.6931e-05,0.0000000365
241,8802,370,173,1.69496e-05,0.0000000366
242.5,8802,371,173,1.69673e-05,0.0000000367
244,8802,371,174,1.69839e-05,0.0000000368
245.5,8802,371,174,1.69995e-05,0.0000000369
247,8802,372,175,1.70141e-05,0.000000037
248.5,8802,372,175,1.70278e-05,0.0000000372
250,8802,372,176,1.70405e-05,0.0000000373
251.5,8802,373,177,1.70523e-05,0.0000000374
253,8802,373,177,1.70632e-05,0.0000000375
254.5,8802,373,178,1.70733e-05,0.0000000376
256,8802,374,178,1.70826e-05,0.0000000377
257.5,8802,374,179,1.70911e-05,0.0000000378
259,8802,374,179,1.7099e-05,0.0000000379
260.5,8802,374,180,1.71062e-05,0.0000000381
262,8802,375,180,1.7113e-05,0.0000000382
263.5,8802,375,181,1.71193e-05,0.0000000383
265,8802,375,181,1.71252e-05,0.0000000384
266.5,8802,375,182,1.7131e-05,0.0000000385
268,8802,376,182,1.71366e-05,0.0000000386
269.5,8802,376,183,1.71422e-05,0.0000000387
271,8802,376,183,1.7148e-05,0.0000000388
272.5,8802,376,184,1.71541e-05,0.000000039
274,8802,377,184,1.71608e-05,0.0000000391
275.5,8802,377,185,1.71608e-05,0.0000000392
277,8802,377,185,1.71608e-05,0.0000000393
278.5,8802,377,185,1.71608e-05,0.0000000394
280,8802,377,186,1.71608e-05,0.0000000395
281.5,8802,378,186,1.71608e-05,0.0000000396
283,8802,378,187,1.71608e-05,0.0000000398
284.5,8802,378,187,1.71608e-05,0.0000000399
286,8802,378,188,1.71608e-05,0.00000004
287.5,8802,379,188,1.71608e-05,0.0000000401
289,8802,379,189,1.71608e-05,0.0000000402
290.5,8802,379,189,1.71608e-05,0.0000000403
292,8802,379,190,1.71608e-05,0.0000000405
293.5,8802,380,190,1.71608e-05,0.0000000406
295,8802,380,191,1.71608e-05,0.0000000407
296.5,8802,380,191,1.71608e-05,0.0000000408
298,8802,381,192,1.71608e-05,0.0000000409
299.5,8802,381,192,1.71608e-05,0.0000000411
300,8802,381,192,1.71608e-05,0.0000000411

File: EPOXY.csv
T/K,rho/(kg/m3),cp/(J/(kg.K)),K/(W/(m.K)),alpha_thermal/(1/K),resistivity/(ohm.m)
1,1150,0.03,0.016,1.31895e-06,0
2.5,1150,0.361,0.0406,2.47447e-06,0
4,1150,1.56,0.0479,3.59413e-06,0
5.5,1150,4.42,0.0526,4.67867e-06,0
7,1150,8.8,0.0555,5.72882e-06,0
8.5,1150,14.5,0.0565,6.74529e-06,0
10,1150,21.3,0.0562,7.72881e-06,0
11.5,1150,29,0.0584,8.68009e-06,0
13,1150,37.4,0.0605,9.59982e-06,0
14.5,1150,46.6,0.0626,1.04887e-05,0
16,1150,56.3,0.0647,1.13475e-05,0
17.5,1150,66.5,0.0668,1.21768e-05,0
19,1150,76.9,0.0687,1.29773e-05,0
20.5,1150,87.3,0.0706,1.37497e-05,0
22,1150,97.2,0.0722,1.44947e-05,0
23.5,1150,107,0.0737,1.5213e-05,0
25,1150,117,0.0752,1.59051e-05,0
26.5,1150,127,0.0767,1.65718e-05,0
28,1150,137,0.0781,1.72138e-05,0
29.5,1150,147,0.0795,1.78316e-05,0
31,1150,156,0.081,1.84258e-05,0
32.5,1150,165,0.0825,1.89973e-05,0
34,1150,174,0.084,1.95464e-05,0
35.5,1150,183,0.0855,2.0074e-05,0
37,1150,192,0.087,2.05805e-05,0
38.5,1150,201,0.0885,2.10667e-05,0
40,1150,210,0.09,2.15331e-05,0
41.5,1150,219,0.0915,2.19803e-05,0
43,1150,228,0.0931,2.24089e-05,0
44.5,1150,237,0.0946,2.28196e-05,0
46,1150,246,0.0961,2.32128e-05,0
47.5,1150,255,0.0976,2.35892e-05,0
49,1150,264,0.099,2.39493e-05,0
50.5,1150,273,0.1,2.42937e-05,0
52,1150,282,0.102,2.46231e-05,0
53.5,1150,291,0.103,2.49378e-05,0
55,1150,300,0.104,2.52385e-05,0
56.5,1150,308,0.106,2.55258e-05,0
58,1150,317,0.107,2.58001e-05,0
59.5,1150,325,0.108,2.60621e-05,0
61,1150,333,0.109,2.63122e-05,0
62.5,1150,341,0.111,2.65509e-05,0
64,1150,349,0.112,2.67788e-05,0
65.5,1150,356,0.113,2.69965e-05,0
67,1150,364,0.114,2.72043e-05,0
68.5,1150,372,0.116,2.74028e-05,0
70,1150,380,0.117,2.75925e-05,0
71.5,1150,389,0.118,2.77739e-05,0
73,1150,398,0.119,2.79475e-05,0
74.5,1150,407,0.121,2.81138e-05,0
76,1150,416,0.122,2.82732e-05,0
77.5,1150,425,0.123,2.84262e-05,0
79,1150,434,0.124,2.85733e-05,0
80.5,1150,443,0.125,2.87148e-05,0
82,1150,450,0.127,2.88514e-05,0
83.5,1150,458,0.128,2.89834e-05,0
85,1150,466,0.13,2.91113e-05,0
86.5,1150,473,0.131,2.92355e-05,0
88,1150,480,0.133,2.93564e-05,0
89.5,1150,487,0.134,2.94745e-05,0
91,1150,495,0.136,2.95902e-05,0
92.5,1150,503,0.138,2.97039e-05,0
94,1150,510,0.14,2.98159e-05,0
95.5,1150,518,0.142,2.99269e-05,0
97,1150,525,0.144,3.0037e-05,0
98.5,1150,533,0.146,3.01467e-05,0
100,1150,540,0.148,3.02564e-05,0
101.5,1150,547,0.15,3.03665e-05,0
103,1150,555,0.151,3.04773e-05,0
104.5,1150,562,0.153,3.05893e-05,0
106,1150,570,0.155,3.07027e-05,0
107.5,1150,577,0.156,3.0818e-05,0
109,1150,584,0.158,3.09355e-05,0
110.5,1150,592,0.159,3.10556e-05,0
112,1150,599,0.161,3.11786e-05,0
113.5,1150,607,0.162,3.13047e-05,0
115,1150,614,0.164,3.14345e-05,0
116.5,1150,621,0.165,3.15682e-05,0
118,1150,628,0.166,3.1706e-05,0
119.5,1150,636,0.168,3.18484e-05,0
121,1150,643,0.169,3.19957e-05,0
122.5,1150,650,0.17,3.21481e-05,0
124,1150,657,0.171,3.23059e-05,0
125.5,1150,665,0.172,3.24695e-05,0
127,1150,672,0.173,3.26391e-05,0
128.5,1150,679,0.174,3.2815e-05,0
130,1150,686,0.175,3.29976e-05,0
131.5,1150,693,0.176,3.31869e-05,0
133,1150,700,0.177,3.33835e-05,0
134.5,1150,708,0.178,3.35874e-05,0
136,1150,715,0.179,3.3799e-05,0
137.5,1150,722,0.18,3.40184e-05,0
139,1150,729,0.181,3.42461e-05,0
140.5,1150,736,0.182,3.44821e-05,0
142,1150,743,0.182,3.47267e-05,0
143.5,1150,750,0.183,3.49802e-05,0
145,1150,757,0.184,3.52427e-05,0
146.5,1150,764,0.184,3.55145e-05,0
148,1150,771,0.185,3.57959e-05,0
149.5,1150,778,0.186,3.60869e-05,0
151,1150,785,0.186,3.63879e-05,0
152.5,1150,792,0.187,3.66989e-05,0
154,1150,798,0.188,3.70203e-05,0
155.5,1150,805,0.188,3.73521e-05,0
157,1150,812,0.189,3.76947e-05,0
158.5,1150,819,0.189,3.8048e-05,0
160,1150,826,0.19,3.84123e-05,0
161.5,1150,833,0.191,3.87878e-05,0
163,1150,840,0.191,3.91747e-05,0
164.5,1150,846,0.192,3.9573e-05,0
166,1150,853,0.192,3.99829e-05,0
167.5,1150,860,0.193,4.04046e-05,0
169,1150,866,0.193,4.08382e-05,0
170.5,1150,873,0.193,4.12838e-05,0
172,1150,880,0.194,4.17415e-05,0
173.5,1150,887,0.194,4.22116e-05,0
175,1150,893,0.195,4.2694e-05,0
176.5,1150,900,0.195,4.31889e-05,0
178,1150,906,0.195,4.36965e-05,0
179.5,1150,913,0.196,4.42167e-05,0
181,1150,919,0.196,4.47497e-05,0
182.5,1150,926,0.197,4.52955e-05,0
184,1150,932,0.197,4.58543e-05,0
185.5,1150,939,0.197,4.64262e-05,0
187,1150,945,0.197,4.70111e-05,0
188.5,1150,952,0.198,4.76092e-05,0
190,1150,958,0.198,4.82206e-05,0
191.5,1150,964,0.198,4.88452e-05,0
193,1150,971,0.199,4.94831e-05,0
194.5,1150,977,0.199,5.01344e-05,0
196,1150,983,0.199,5.07991e-05,0
197.5,1150,990,0.2,5.14772e-05,0
199,1150,996,0.2,5.21688e-05,0
200.5,1150,1000,0.2,5.28739e-05,0
202,1150,1010,0.201,5.35924e-05,0
203.5,1150,1010,0.201,5.43245e-05,0
205,1150,1020,0.201,5.507e-05,0
206.5,1150,1030,0.202,5.58291e-05,0
208,1150,1030,0.202,5.66017e-05,0
209.5,1150,1040,0.202,5.73878e-05,0
211,1150,1040,0.203,5.81873e-05,0
212.5,1150,1050,0.203,5.90003e-05,0
214,1150,1060,0.204,5.98267e-05,0
215.5,1150,1060,0.204,6.06664e-05,0
217,1150,1070,0.204,6.15196e-05,0
218.5,1150,1070,0.205,6.2386e-05,0
220,1150,1080,0.205,6.32657e-05,0
221.5,1150,1080,0.205,6.41585e-05,0
223,1150,1090,0.206,6.50645e-05,0
224.5,1150,1100,0.206,6.59836e-05,0
226,1150,1100,0.206,6.69156e-05,0
227.5,1150,1110,0.207,6.78606e-05,0
229,1150,1110,0.207,6.88184e-05,0
230.5,1150,1120,0.207,6.97889e-05,0
232,1150,1120,0.208,7.07721e-05,0
233.5,1150,1130,0.208,7.17678e-05,0
235,1150,1140,0.208,7.27759e-05,0
236.5,1150,1140,0.209,7.37964e-05,0
238,1150,1150,0.209,7.48291e-05,0
239.5,1150,1150,0.209,7.58739e-05,0
241,1150,1160,0.209,7.69306e-05,0
242.5,1150,1160,0.21,7.79992e-05,0
244,1150,1170,0.21,7.90795e-05,0
245.5,1150,1170,0.21,8.01713e-05,0
247,1150,1180,0.21,8.12745e-05,0
248.5,1150,1180,0.211,8.23889e-05,0
250,1150,1190,0.211,8.35145e-05,0
251.5,1150,1200,0.211,8.46509e-05,0
253,1150,1200,0.211,8.57981e-05,0
254.5,1150,1210,0.212,8.69559e-05,0
256,1150,1210,0.212,8.81241e-05,0
257.5,1150,1220,0.212,8.93024e-05,0
259,1150,1220,0.212,9.04908e-05,0
260.5,1150,1230,0.213,9.1689e-05,0
262,1150,1230,0.213,9.28968e-05,0
263.5,1150,1240,0.213,9.41139e-05,0
265,1150,1240,0.213,9.53403e-05,0
266.5,1150,1250,0.213,9.65756e-05,0
268,1150,1250,0.213,9.78196e-05,0
269.5,1150,1260,0.214,9.90722e-05,0
271,1150,1260,0.214,0.000100333,0
272.5,1150,1270,0.214,0.000101602,0
274,1150,1270,0.214,0.000102878,0
275.5,1150,1280,0.214,0.000104163,0
277,1150,1280,0.214,0.000105454,0
278.5,1150,1290,0.215,0.000106752,0
280,1150,1290,0.215,0.000108057,0
281.5,1150,1300,0.215,0.000109369,0
283,1150,1300,0.215,0.000110687,0
284.5,1150,1310,0.215,0.00011201,0
286,1150,1310,0.215,0.00011334,0
287.5,1150,1320,0.215,0.000114674,0
289,1150,1320,0.215,0.000116014,0
290.5,1150,1330,0.215,0.000117358,0
292,1150,1330,0.216,0.000118706,0
293.5,1150,1340,0.216,0.000120059,0
295,1150,1340,0.216,0.000121415,0
296.5,1150,1350,0.216,0.000122775,0
298,1150,1350,0.216,0.000124138,0
299.5,1150,1360,0.216,0.000125503,0
300,1150,1360,0.216,0.000125959,0