Folder: SolidProps/SolidProps/lib (part 3)

File: COPPER-NICKEL_57-43.csv
T/K,rho/(kg/m3),cp/(J/(kg.K)),K/(W/(m.K)),alpha_thermal/(1/K),resistivity/(ohm.m)
1,8938,0.113,0.095,1.11427e-08,0.000000461
2.5,8938,0.264,0.409,4.6789e-08,0.000000461
4,8938,0.446,0.878,8.63011e-08,0.000000461
5.5,8938,0.673,1.43,1.29591e-07,0.000000461
7,8938,0.957,2.06,1.76572e-07,0.000000461
8.5,8938,1.31,2.76,2.27158e-07,0.000000461
10,8938,1.74,3.5,2.81262e-07,0.000000461
11.5,8938,2.14,4.25,3.388e-07,0.000000461
13,8938,2.65,5.02,3.99688e-07,0.000000461
14.5,8938,3.3,5.81,4.63841e-07,0.000000461
16,8938,4.12,6.6,5.31178e-07,0.000000461
17.5,8938,5.15,7.4,6.01616e-07,0.000000461
19,8938,6.43,8.18,6.75073e-07,0.000000461
20.5,8938,8.08,8.94,7.51469e-07,0.000000461
22,8938,10.2,9.66,8.30724e-07,0.000000461
23.5,8938,12.7,10.4,9.12759e-07,0.000000461
25,8938,15.4,11,9.97494e-07,0.000000461
26.5,8938,18.4,11.7,1.08485e-06,0.000000461
28,8938,21.8,12.3,1.17476e-06,0.000000461
29.5,8938,25.3,12.8,1.26713e-06,0.000000461
31,8938,29.5,13.3,1.3619e-06,0.000000461
32.5,8938,33.9,13.7,1.45899e-06,0.000000461
34,8938,38.6,14.1,1.55832e-06,0.000000461
35.5,8938,43.4,14.5,1.65983e-06,0.000000461
37,8938,48.5,14.8,1.76343e-06,0.000000461
38.5,8938,53.7,15.2,1.86906e-06,0.000000461
40,8938,59,15.5,1.97664e-06,0.000000461
41.5,8938,64.2,15.9,2.0861e-06,0.000000461
43,8938,69.4,16.4,2.19738e-06,0.000000461
44.5,8938,74.7,16.8,2.31041e-06,0.000000461
46,8938,80.1,17.2,2.42511e-06,0.000000461
47.5,8938,85.6,17.6,2.54142e-06,0.000000461
49,8938,91.2,17.9,2.65927e-06,0.000000461
50.5,8938,97,18.1,2.7786e-06,0.000000461
52,8938,103,18.2,2.89933e-06,0.000000462
53.5,8938,109,18.3,3.02141e-06,0.000000462
55,8938,115,18.3,3.14477e-06,0.000000462
56.5,8938,121,18.3,3.26934e-06,0.000000462
58,8938,127,18.3,3.39507e-06,0.000000462
59.5,8938,133,18.3,3.52189e-06,0.000000462
61,8938,139,18.3,3.64974e-06,0.000000463
62.5,8938,145,18.4,3.77856e-06,0.000000463
64,8938,151,18.5,3.90828e-06,0.000000463
65.5,8938,156,18.6,4.03886e-06,0.000000463
67,8938,162,18.7,4.17023e-06,0.000000463
68.5,8938,168,18.7,4.30233e-06,0.000000464
70,8938,173,18.8,4.43511e-06,0.000000464
71.5,8938,178,18.8,4.5685e-06,0.000000464
73,8938,183,18.9,4.70246e-06,0.000000464
74.5,8938,188,18.9,4.83693e-06,0.000000464
76,8938,193,19,4.97186e-06,0.000000464
77.5,8938,198,19,5.10718e-06,0.000000465
79,8938,202,19,5.24285e-06,0.000000465
80.5,8938,207,19.1,5.37882e-06,0.000000465
82,8938,211,19.1,5.51504e-06,0.000000465
83.5,8938,215,19.2,5.65144e-06,0.000000465
85,8938,220,19.3,5.78799e-06,0.000000466
86.5,8938,224,19.3,5.92464e-06,0.000000466
88,8938,227,19.4,6.06133e-06,0.000000466
89.5,8938,231,19.5,6.19802e-06,0.000000466
91,8938,234,19.5,6.33466e-06,0.000000466
92.5,8938,236,19.6,6.47121e-06,0.000000466
94,8938,239,19.7,6.60761e-06,0.000000466
95.5,8938,240,19.8,6.74383e-06,0.000000467
97,8938,242,19.8,6.87981e-06,0.000000467
98.5,8938,244,19.9,7.01553e-06,0.000000467
100,8938,245,20,7.15092e-06,0.000000467
101.5,8938,247,20.1,7.28596e-06,0.000000467
103,8938,249,20.1,7.42059e-06,0.000000467
104.5,8938,251,20.2,7.55479e-06,0.000000468
106,8938,254,20.3,7.6885e-06,0.000000468
107.5,8938,256,20.3,7.82169e-06,0.000000468
109,8938,258,20.4,7.95432e-06,0.000000468
110.5,8938,261,20.4,8.08636e-06,0.000000468
112,8938,263,20.5,8.21776e-06,0.000000468
113.5,8938,265,20.6,8.34849e-06,0.000000469
115,8938,268,20.6,8.47851e-06,0.000000469
116.5,8938,270,20.7,8.60779e-06,0.000000469
118,8938,273,20.7,8.7363e-06,0.000000469
119.5,8938,275,20.8,8.86399e-06,0.000000469
121,8938,277,20.8,8.99084e-06,0.00000047
122.5,8938,280,20.9,9.11682e-06,0.00000047
124,8938,282,20.9,9.24189e-06,0.00000047
125.5,8938,285,21,9.36603e-06,0.00000047
127,8938,287,21,9.4892e-06,0.000000471
128.5,8938,290,21,9.61137e-06,0.000000471
130,8938,292,21.1,9.73251e-06,0.000000471
131.5,8938,295,21.1,9.85261e-06,0.000000471
133,8938,297,21.2,9.97162e-06,0.000000471
134.5,8938,299,21.2,1.00895e-05,0.000000472
136,8938,302,21.3,1.02063e-05,0.000000472
137.5,8938,304,21.3,1.03219e-05,0.000000472
139,8938,307,21.3,1.04364e-05,0.000000472
140.5,8938,309,21.4,1.05496e-05,0.000000473
142,8938,311,21.4,1.06616e-05,0.000000473
143.5,8938,313,21.4,1.07723e-05,0.000000473
145,8938,316,21.5,1.08818e-05,0.000000473
146.5,8938,318,21.5,1.099e-05,0.000000473
148,8938,320,21.6,1.10969e-05,0.000000474
149.5,8938,322,21.6,1.12024e-05,0.000000474
151,8938,324,21.6,1.13066e-05,0.000000474
152.5,8938,325,21.7,1.14095e-05,0.000000474
154,8938,327,21.7,1.15109e-05,0.000000475
155.5,8938,328,21.7,1.16109e-05,0.000000475
157,8938,330,21.8,1.17096e-05,0.000000475
158.5,8938,331,21.8,1.18067e-05,0.000000475
160,8938,332,21.9,1.19025e-05,0.000000475
161.5,8938,333,21.9,1.19968e-05,0.000000475
163,8938,335,21.9,1.20896e-05,0.000000476
164.5,8938,336,22,1.21809e-05,0.000000476
166,8938,337,22,1.22707e-05,0.000000476
167.5,8938,338,22.1,1.2359e-05,0.000000476
169,8938,339,22.1,1.24458e-05,0.000000476
170.5,8938,340,22.1,1.25311e-05,0.000000477
172,8938,341,22.2,1.26148e-05,0.000000477
173.5,8938,342,22.2,1.2697e-05,0.000000477
175,8938,343,22.2,1.27776e-05,0.000000477
176.5,8938,344,22.3,1.28567e-05,0.000000477
178,8938,345,22.3,1.29342e-05,0.000000477
179.5,8938,346,22.3,1.30102e-05,0.000000478
181,8938,347,22.4,1.30845e-05,0.000000478
182.5,8938,348,22.4,1.31573e-05,0.000000478
184,8938,349,22.4,1.32286e-05,0.000000478
185.5,8938,349,22.5,1.32982e-05,0.000000478
187,8938,350,22.5,1.33662e-05,0.000000478
188.5,8938,351,22.5,1.34327e-05,0.000000479
190,8938,352,22.6,1.34976e-05,0.000000479
191.5,8938,352,22.6,1.35609e-05,0.000000479
193,8938,353,22.6,1.36226e-05,0.000000479
194.5,8938,354,22.7,1.36827e-05,0.000000479
196,8938,354,22.7,1.37413e-05,0.00000048
197.5,8938,355,22.7,1.37983e-05,0.00000048
199,8938,356,22.8,1.38537e-05,0.00000048
200.5,8938,356,22.8,1.39076e-05,0.00000048
202,8938,357,22.8,1.39598e-05,0.00000048
203.5,8938,358,22.9,1.40106e-05,0.00000048
205,8938,358,22.9,1.40598e-05,0.000000481
206.5,8938,359,22.9,1.41074e-05,0.000000481
208,8938,360,23,1.41536e-05,0.000000481
209.5,8938,360,23,1.41982e-05,0.000000481
211,8938,361,23,1.42413e-05,0.000000481
212.5,8938,362,23.1,1.42829e-05,0.000000481
214,8938,362,23.1,1.4323e-05,0.000000482
215.5,8938,363,23.1,1.43616e-05,0.000000482
217,8938,363,23.2,1.43988e-05,0.000000482
218.5,8938,364,23.2,1.44345e-05,0.000000482
220,8938,364,23.2,1.44688e-05,0.000000482
221.5,8938,365,23.3,1.45017e-05,0.000000483
223,8938,366,23.3,1.45331e-05,0.000000483
224.5,8938,366,23.3,1.45632e-05,0.000000483
226,8938,367,23.4,1.45919e-05,0.000000483
227.5,8938,367,23.4,1.46192e-05,0.000000483
229,8938,368,23.4,1.46452e-05,0.000000483
230.5,8938,368,23.5,1.46699e-05,0.000000484
232,8938,369,23.5,1.46933e-05,0.000000484
233.5,8938,369,23.5,1.47154e-05,0.000000484
235,8938,370,23.5,1.47363e-05,0.000000484
236.5,8938,370,23.6,1.47559e-05,0.000000484
238,8938,371,23.6,1.47744e-05,0.000000485
239.5,8938,371,23.6,1.47916e-05,0.000000485
241,8938,371,23.6,1.48077e-05,0.000000485
242.5,8938,372,23.7,1.48226e-05,0.000000485
244,8938,372,23.7,1.48364e-05,0.000000485
245.5,8938,373,23.7,1.48492e-05,0.000000485
247,8938,373,23.8,1.48609e-05,0.000000486
248.5,8938,374,23.8,1.48715e-05,0.000000486
250,8938,374,23.8,1.48812e-05,0.000000486
251.5,8938,374,23.8,1.48899e-05,0.000000486
253,8938,375,23.8,1.48976e-05,0.000000486
254.5,8938,375,23.8,1.49044e-05,0.000000487
256,8938,376,23.9,1.49104e-05,0.000000487
257.5,8938,376,23.9,0.00001491547,0.000000487
259,8938,376,23.9,1.49198e-05,0.000000487
260.5,8938,377,23.9,1.49232e-05,0.000000487
262,8938,377,23.9,1.4926e-05,0.000000488
263.5,8938,378,24,1.4928e-05,0.000000488
265,8938,378,24,1.49294e-05,0.000000488
266.5,8938,378,24,1.49301e-05,0.000000488
268,8938,379,24,1.49302e-05,0.000000488
269.5,8938,379,24,1.49298e-05,0.000000489
271,8938,380,24.1,1.49288e-05,0.000000489
272.5,8938,380,24.1,1.49273e-05,0.000000489
274,8938,380,24.1,1.49254e-05,0.000000489
275.5,8938,381,24.1,1.49231e-05,0.000000489
277,8938,381,24.2,1.49204e-05,0.000000489
278.5,8938,381,24.2,1.49174e-05,0.00000049
280,8938,382,24.2,1.49141e-05,0.00000049
281.5,8938,382,24.3,1.49141e-05,0.00000049
283,8938,382,24.3,1.49141e-05,0.00000049
284.5,8938,383,24.4,1.49141e-05,0.00000049
286,8938,383,24.4,1.49141e-05,0.000000491
287.5,8938,383,24.4,1.49141e-05,0.000000491
289,8938,384,24.5,1.49141e-05,0.000000491
290.5,8938,384,24.5,1.49141e-05,0.000000491
292,8938,384,24.6,1.49141e-05,0.000000491
293.5,8938,385,24.6,1.49141e-05,0.000000491
295,8938,385,24.7,1.49141e-05,0.000000492
296.5,8938,385,24.8,1.49141e-05,0.000000492
298,8938,386,24.8,1.49141e-05,0.000000492
299.5,8938,386,24.9,1.49141e-05,0.000000492
300,8938,386,24.9,1.49141e-05,0.000000492

File: COPPER-NICKEL_70-30.csv
T/K,rho/(kg/m3),cp/(J/(kg.K)),K/(W/(m.K)),alpha_thermal/(1/K),resistivity/(ohm.m)
1,8939,0.118,0.265,0,0.000000363
2.5,8939,0.28,0.664,0,0.000000364
4,8939,0.473,1.07,0,0.000000364
5.5,8939,0.711,1.67,0,0.000000364
7,8939,1,2.44,0,0.000000364
8.5,8939,1.36,3.33,0,0.000000364
10,8939,1.8,4.3,0,0.000000365
11.5,8939,2.2,5.21,0,0.000000365
13,8939,2.7,6.13,0,0.000000365
14.5,8939,3.34,7.06,0,0.000000365
16,8939,4.15,7.99,6.40314e-08,0.000000365
17.5,8939,5.17,8.91,1.2498e-07,0.000000365
19,8939,6.44,9.81,2.24753e-07,0.000000365
20.5,8939,8.08,10.7,3.03024e-07,0.000000365
22,8939,10.2,11.4,3.79473e-07,0.000000365
23.5,8939,12.7,12.2,4.53786e-07,0.000000365
25,8939,15.4,12.9,5.35655e-07,0.000000365
26.5,8939,18.4,13.6,6.34779e-07,0.000000365
28,8939,21.8,14.2,7.40861e-07,0.000000365
29.5,8939,25.3,14.8,8.53613e-07,0.000000365
31,8939,29.5,15.4,9.32749e-07,0.000000365
32.5,8939,33.9,15.9,1.01799e-06,0.000000365
34,8939,38.6,16.3,1.10907e-06,0.000000365
35.5,8939,43.4,16.7,1.20572e-06,0.000000365
37,8939,48.5,17.1,1.30767e-06,0.000000365
38.5,8939,53.7,17.5,1.41468e-06,0.000000366
40,8939,59,17.8,1.52648e-06,0.000000366
41.5,8939,64.2,18.1,1.64285e-06,0.000000366
43,8939,69.4,18.3,1.76353e-06,0.000000366
44.5,8939,74.7,18.5,1.88831e-06,0.000000366
46,8939,80.1,18.7,2.01694e-06,0.000000366
47.5,8939,85.6,18.9,2.1492e-06,0.000000366
49,8939,91.2,19.1,2.28488e-06,0.000000366
50.5,8939,97,19.3,2.42377e-06,0.000000366
52,8939,103,19.5,2.56566e-06,0.000000366
53.5,8939,109,19.7,2.71034e-06,0.000000366
55,8939,115,19.9,2.85762e-06,0.000000366
56.5,8939,121,20.1,3.00731e-06,0.000000366
58,8939,127,20.3,3.15922e-06,0.000000366
59.5,8939,133,20.4,3.31317e-06,0.000000366
61,8939,139,20.6,3.46897e-06,0.000000366
62.5,8939,145,20.8,3.62647e-06,0.000000366
64,8939,151,21,3.78548e-06,0.000000367
65.5,8939,156,21.2,3.94585e-06,0.000000367
67,8939,162,21.3,4.10742e-06,0.000000367
68.5,8939,168,21.5,4.27003e-06,0.000000367
70,8939,173,21.6,4.43354e-06,0.000000367
71.5,8939,178,21.7,4.59779e-06,0.000000367
73,8939,183,21.8,4.76265e-06,0.000000367
74.5,8939,188,21.8,4.92798e-06,0.000000367
76,8939,193,21.9,5.09365e-06,0.000000367
77.5,8939,198,21.9,5.25953e-06,0.000000367
79,8939,202,22,5.42549e-06,0.000000367
80.5,8939,207,22,5.59142e-06,0.000000367
82,8939,211,22.1,5.7572e-06,0.000000367
83.5,8939,215,22.2,5.92271e-06,0.000000368
85,8939,220,22.3,6.08786e-06,0.000000368
86.5,8939,224,22.3,6.25253e-06,0.000000368
88,8939,227,22.4,6.41663e-06,0.000000368
89.5,8939,231,22.5,6.58006e-06,0.000000368
91,8939,234,22.5,6.74273e-06,0.000000368
92.5,8939,236,22.6,6.90454e-06,0.000000368
94,8939,239,22.7,7.06541e-06,0.000000368
95.5,8939,240,22.7,7.22527e-06,0.000000369
97,8939,242,22.8,7.38402e-06,0.000000369
98.5,8939,244,22.8,7.54161e-06,0.000000369
100,8939,245,22.9,7.69794e-06,0.000000369
101.5,8939,247,23,7.85297e-06,0.000000369
103,8939,249,23,8.00662e-06,0.000000369
104.5,8939,251,23.1,8.15883e-06,0.000000369
106,8939,254,23.1,8.30954e-06,0.00000037
107.5,8939,256,23.1,8.4587e-06,0.00000037
109,8939,258,23.2,8.60625e-06,0.00000037
110.5,8939,261,23.2,8.75214e-06,0.00000037
112,8939,263,23.3,8.89634e-06,0.00000037
113.5,8939,265,23.3,9.03879e-06,0.00000037
115,8939,268,23.4,9.17946e-06,0.00000037
116.5,8939,270,23.4,9.3183e-06,0.00000037
118,8939,273,23.4,9.45529e-06,0.000000371
119.5,8939,275,23.5,9.59038e-06,0.000000371
121,8939,277,23.5,9.72356e-06,0.000000371
122.5,8939,280,23.5,9.85479e-06,0.000000371
124,8939,282,23.6,9.98405e-06,0.000000371
125.5,8939,285,23.6,1.01113e-05,0.000000371
127,8939,287,23.6,1.02366e-05,0.000000371
128.5,8939,290,23.7,1.03598e-05,0.000000371
130,8939,292,23.7,1.0481e-05,0.000000371
131.5,8939,295,23.7,1.06001e-05,0.000000372
133,8939,297,23.7,1.07171e-05,0.000000372
134.5,8939,299,23.8,1.08321e-05,0.000000372
136,8939,302,23.8,1.0945e-05,0.000000372
137.5,8939,304,23.8,1.10558e-05,0.000000372
139,8939,307,23.8,1.11645e-05,0.000000372
140.5,8939,309,23.9,1.12711e-05,0.000000372
142,8939,311,23.9,1.13757e-05,0.000000372
143.5,8939,313,23.9,1.14781e-05,0.000000372
145,8939,316,23.9,1.15785e-05,0.000000373
146.5,8939,318,23.9,1.16768e-05,0.000000373
148,8939,320,24,1.17731e-05,0.000000373
149.5,8939,322,24,1.18672e-05,0.000000373
151,8939,324,24,1.19594e-05,0.000000373
152.5,8939,325,24,1.20495e-05,0.000000373
154,8939,327,24.1,1.21376e-05,0.000000373
155.5,8939,328,24.1,1.22237e-05,0.000000374
157,8939,330,24.1,1.23078e-05,0.000000374
158.5,8939,331,24.2,1.239e-05,0.000000374
160,8939,332,24.2,1.24702e-05,0.000000374
161.5,8939,333,24.2,1.25485e-05,0.000000374
163,8939,335,24.2,1.26249e-05,0.000000374
164.5,8939,336,24.3,1.26994e-05,0.000000375
166,8939,337,24.3,1.27721e-05,0.000000375
167.5,8939,338,24.3,1.28429e-05,0.000000375
169,8939,339,24.4,1.2912e-05,0.000000375
170.5,8939,340,24.4,1.29793e-05,0.000000375
172,8939,341,24.4,1.30448e-05,0.000000375
173.5,8939,342,24.4,1.31086e-05,0.000000376
175,8939,343,24.5,1.31708e-05,0.000000376
176.5,8939,344,24.5,1.32312e-05,0.000000376
178,8939,345,24.5,1.32901e-05,0.000000376
179.5,8939,346,24.6,1.33474e-05,0.000000376
181,8939,347,24.6,1.3403e-05,0.000000376
182.5,8939,348,24.6,1.34572e-05,0.000000377
184,8939,349,24.7,1.35099e-05,0.000000377
185.5,8939,349,24.7,1.35611e-05,0.000000377
187,8939,350,24.7,1.36108e-05,0.000000377
188.5,8939,351,24.7,1.36592e-05,0.000000377
190,8939,352,24.8,1.37062e-05,0.000000377
191.5,8939,352,24.8,1.37518e-05,0.000000378
193,8939,353,24.8,1.37962e-05,0.000000378
194.5,8939,354,24.9,1.38393e-05,0.000000378
196,8939,354,24.9,1.38812e-05,0.000000378
197.5,8939,355,24.9,1.39218e-05,0.000000378
199,8939,356,25,1.39613e-05,0.000000378
200.5,8939,356,25,1.39997e-05,0.000000379
202,8939,357,25,1.40369e-05,0.000000379
203.5,8939,358,25.1,1.40731e-05,0.000000379
205,8939,358,25.1,1.41082e-05,0.000000379
206.5,8939,359,25.2,1.41424e-05,0.000000379
208,8939,360,25.2,1.41755e-05,0.000000379
209.5,8939,360,25.2,1.42077e-05,0.00000038
211,8939,361,25.3,0.00001423901,0.00000038
212.5,8939,362,25.3,1.42694e-05,0.00000038
214,8939,362,25.3,1.4299e-05,0.00000038
215.5,8939,363,25.4,1.43277e-05,0.00000038
217,8939,363,25.4,1.43556e-05,0.00000038
218.5,8939,364,25.5,1.43827e-05,0.00000038
220,8939,364,25.5,1.4409e-05,0.000000381
221.5,8939,365,25.6,1.44347e-05,0.000000381
223,8939,366,25.6,1.44596e-05,0.000000381
224.5,8939,366,25.6,1.44838e-05,0.000000381
226,8939,367,25.7,1.45074e-05,0.000000381
227.5,8939,367,25.7,1.45303e-05,0.000000381
229,8939,368,25.8,1.45526e-05,0.000000381
230.5,8939,368,25.8,1.45743e-05,0.000000382
232,8939,369,25.9,1.45954e-05,0.000000382
233.5,8939,369,25.9,1.46159e-05,0.000000382
235,8939,370,26,1.46358e-05,0.000000382
236.5,8939,370,26,1.46551e-05,0.000000382
238,8939,371,26.1,1.4674e-05,0.000000382
239.5,8939,371,26.1,1.46922e-05,0.000000382
241,8939,371,26.2,1.47099e-05,0.000000382
242.5,8939,372,26.2,1.47271e-05,0.000000382
244,8939,372,26.3,1.47438e-05,0.000000383
245.5,8939,373,26.3,1.47599e-05,0.000000383
247,8939,373,26.4,1.47755e-05,0.000000383
248.5,8939,374,26.4,1.47906e-05,0.000000383
250,8939,374,26.5,1.48051e-05,0.000000383
251.5,8939,374,26.6,1.48191e-05,0.000000383
253,8939,375,26.6,1.48325e-05,0.000000383
254.5,8939,375,26.7,1.48454e-05,0.000000383
256,8939,376,26.8,1.48576e-05,0.000000383
257.5,8939,376,26.8,1.48693e-05,0.000000383
259,8939,376,26.9,1.48803e-05,0.000000383
260.5,8939,377,27,1.48907e-05,0.000000383
262,8939,377,27,1.49005e-05,0.000000384
263.5,8939,378,27.1,1.49095e-05,0.000000384
265,8939,378,27.2,1.49179e-05,0.000000384
266.5,8939,378,27.2,1.49254e-05,0.000000384
268,8939,379,27.3,1.49322e-05,0.000000384
269.5,8939,379,27.4,1.49382e-05,0.000000384
271,8939,380,27.4,1.49434e-05,0.000000384
272.5,8939,380,27.5,1.49476e-05,0.000000384
274,8939,380,27.5,1.49509e-05,0.000000384
275.5,8939,381,27.6,1.49532e-05,0.000000384
277,8939,381,27.7,1.49544e-05,0.000000384
278.5,8939,381,27.7,1.49545e-05,0.000000384
280,8939,382,27.8,1.49535e-05,0.000000384
281.5,8939,382,27.9,1.49513e-05,0.000000384
283,8939,382,27.9,1.49478e-05,0.000000384
284.5,8939,383,28,1.4943e-05,0.000000385
286,8939,383,28,1.49367e-05,0.000000385
287.5,8939,383,28.1,1.49317e-05,0.000000385
289,8939,384,28.1,1.49317e-05,0.000000385
290.5,8939,384,28.2,1.49317e-05,0.000000385
292,8939,384,28.2,1.49317e-05,0.000000385
293.5,8939,385,28.3,1.49317e-05,0.000000385
295,8939,385,28.3,1.49317e-05,0.000000385
296.5,8939,385,28.4,1.49317e-05,0.000000385
298,8939,386,28.4,1.49317e-05,0.000000385
299.5,8939,386,28.5,1.49317e-05,0.000000385
300,8939,386,28.5,1.49317e-05,0.000000386

File: COPPER-NICKEL_90-10.csv
T/K,rho/(kg/m3),cp/(J/(kg.K)),K/(W/(m.K)),alpha_thermal/(1/K),resistivity/(ohm.m)
1,8940,0.126,0.28,0,0.00000014
2.5,8940,0.305,0.702,0,0.00000014
4,8940,0.515,1.14,0,0.00000014
5.5,8940,0.768,1.9,0,0.00000014
7,8940,1.07,2.93,0,0.00000014
8.5,8940,1.44,4.18,0,0.00000014
10,8940,1.88,5.6,0,0.00000014
11.5,8940,2.28,7.03,0,0.00000014
13,8940,2.77,8.53,0,0.00000014
14.5,8940,3.4,10.1,0,0.00000014
16,8940,4.19,11.7,8.16699e-08,0.00000014
17.5,8940,5.2,13.4,2.08716e-07,0.00000014
19,8940,6.45,15,3.38045e-07,0.00000014
20.5,8940,8.08,16.6,4.49126e-07,0.00000014
22,8940,10.2,18.1,5.09453e-07,0.00000014
23.5,8940,12.7,19.6,5.64487e-07,0.00000014
25,8940,15.4,21.1,6.17767e-07,0.00000014
26.5,8940,18.4,22.5,6.80798e-07,0.00000014
28,8940,21.8,23.8,7.53109e-07,0.00000014
29.5,8940,25.3,25.1,8.34239e-07,0.00000014
31,8940,29.5,26.2,9.23739e-07,0.00000014
32.5,8940,33.9,27.3,1.02117e-06,0.00000014
34,8940,38.6,28.3,1.12611e-06,0.00000014
35.5,8940,43.4,29.2,1.23813e-06,0.00000014
37,8940,48.5,30,1.35684e-06,0.00000014
38.5,8940,53.7,30.8,1.48183e-06,0.00000014
40,8940,59,31.6,1.61273e-06,0.00000014
41.5,8940,64.2,32.4,1.74915e-06,0.00000014
43,8940,69.4,33.1,1.89074e-06,0.00000014
44.5,8940,74.7,33.8,2.03713e-06,0.00000014
46,8940,80.1,34.4,2.18799e-06,0.00000014
47.5,8940,85.6,35,2.34298e-06,0.00000014
49,8940,91.2,35.5,2.50177e-06,0.000000141
50.5,8940,97,35.9,2.66405e-06,0.000000141
52,8940,103,36.3,2.82951e-06,0.000000141
53.5,8940,109,36.6,2.99786e-06,0.000000141
55,8940,115,36.9,3.16881e-06,0.000000141
56.5,8940,121,37.1,3.34207e-06,0.000000141
58,8940,127,37.3,3.51739e-06,0.000000141
59.5,8940,133,37.4,3.6945e-06,0.000000141
61,8940,139,37.6,3.87315e-06,0.000000141
62.5,8940,145,37.7,4.05309e-06,0.000000141
64,8940,151,37.9,4.2341e-06,0.000000142
65.5,8940,156,37.9,4.41594e-06,0.000000142
67,8940,162,38,4.5984e-06,0.000000142
68.5,8940,168,38,4.78127e-06,0.000000142
70,8940,173,38,4.96434e-06,0.000000142
71.5,8940,178,37.9,5.14742e-06,0.000000142
73,8940,183,37.8,5.33033e-06,0.000000143
74.5,8940,188,37.6,5.51289e-06,0.000000143
76,8940,193,37.5,5.69492e-06,0.000000143
77.5,8940,198,37.3,5.87627e-06,0.000000143
79,8940,202,37.1,6.05678e-06,0.000000143
80.5,8940,207,36.9,6.23629e-06,0.000000144
82,8940,211,36.8,6.41467e-06,0.000000144
83.5,8940,215,36.6,6.59178e-06,0.000000144
85,8940,220,36.5,6.7675e-06,0.000000144
86.5,8940,224,36.3,6.9417e-06,0.000000144
88,8940,227,36.2,7.11427e-06,0.000000145
89.5,8940,231,36,7.28509e-06,0.000000145
91,8940,234,35.9,7.45408e-06,0.000000145
92.5,8940,236,35.8,7.62113e-06,0.000000146
94,8940,239,35.7,7.78615e-06,0.000000146
95.5,8940,240,35.7,7.94906e-06,0.000000146
97,8940,242,35.6,8.10978e-06,0.000000147
98.5,8940,244,35.5,8.26824e-06,0.000000147
100,8940,245,35.5,8.42437e-06,0.000000148
101.5,8940,247,35.5,8.57812e-06,0.000000148
103,8940,249,35.4,8.72943e-06,0.000000148
104.5,8940,251,35.4,8.87824e-06,0.000000148
106,8940,254,35.4,9.02452e-06,0.000000149
107.5,8940,256,35.4,9.16822e-06,0.000000149
109,8940,258,35.3,9.30931e-06,0.000000149
110.5,8940,261,35.3,9.44775e-06,0.000000149
112,8940,263,35.3,9.58353e-06,0.000000149
113.5,8940,265,35.2,9.71663e-06,0.000000149
115,8940,268,35.2,9.84702e-06,0.00000015
116.5,8940,270,35.2,9.97469e-06,0.00000015
118,8940,273,35.1,1.00996e-05,0.00000015
119.5,8940,275,35.1,1.02219e-05,0.00000015
121,8940,277,35.1,1.03414e-05,0.00000015
122.5,8940,280,35.1,1.04581e-05,0.00000015
124,8940,282,35,1.05722e-05,0.00000015
125.5,8940,285,35,1.06835e-05,0.00000015
127,8940,287,35,1.07922e-05,0.00000015
128.5,8940,290,34.9,1.08982e-05,0.00000015
130,8940,292,34.9,1.10015e-05,0.00000015
131.5,8940,295,34.9,1.11023e-05,0.00000015
133,8940,297,34.8,1.12004e-05,0.00000015
134.5,8940,299,34.8,1.1296e-05,0.00000015
136,8940,302,34.8,1.1389e-05,0.00000015
137.5,8940,304,34.8,1.14795e-05,0.00000015
139,8940,307,34.7,1.15676e-05,0.00000015
140.5,8940,309,34.7,1.16533e-05,0.00000015
142,8940,311,34.7,1.17366e-05,0.00000015
143.5,8940,313,34.6,1.18175e-05,0.00000015
145,8940,316,34.6,1.18962e-05,0.00000015
146.5,8940,318,34.6,1.19727e-05,0.00000015
148,8940,320,34.5,1.20469e-05,0.00000015
149.5,8940,322,34.5,1.21191e-05,0.00000015
151,8940,324,34.5,1.21892e-05,0.00000015
152.5,8940,325,34.5,1.22573e-05,0.00000015
154,8940,327,34.5,1.23234e-05,0.00000015
155.5,8940,328,34.5,1.23876e-05,0.00000015
157,8940,330,34.6,1.245e-05,0.000000151
158.5,8940,331,34.6,1.25106e-05,0.000000151
160,8940,332,34.6,1.25695e-05,0.000000151
161.5,8940,333,34.6,1.26267e-05,0.000000151
163,8940,335,34.6,1.26824e-05,0.000000151
164.5,8940,336,34.7,1.27365e-05,0.000000151
166,8940,337,34.7,1.27892e-05,0.000000151
167.5,8940,338,34.7,1.28404e-05,0.000000152
169,8940,339,34.8,1.28904e-05,0.000000152
170.5,8940,340,34.8,1.2939e-05,0.000000152
172,8940,341,34.8,1.29865e-05,0.000000152
173.5,8940,342,34.8,1.30328e-05,0.000000152
175,8940,343,34.9,1.30781e-05,0.000000152
176.5,8940,344,34.9,1.31223e-05,0.000000153
178,8940,345,34.9,1.31656e-05,0.000000153
179.5,8940,346,35,1.3208e-05,0.000000153
181,8940,347,35,1.32496e-05,0.000000153
182.5,8940,348,35,1.32904e-05,0.000000153
184,8940,349,35.1,1.33306e-05,0.000000153
185.5,8940,349,35.1,1.337e-05,0.000000153
187,8940,350,35.2,1.34089e-05,0.000000154
188.5,8940,351,35.2,1.34473e-05,0.000000154
190,8940,352,35.2,1.34851e-05,0.000000154
191.5,8940,352,35.3,1.35226e-05,0.000000154
193,8940,353,35.3,1.35597e-05,0.000000154
194.5,8940,354,35.4,1.35964e-05,0.000000154
196,8940,354,35.4,1.36329e-05,0.000000155
197.5,8940,355,35.4,1.36691e-05,0.000000155
199,8940,356,35.5,1.37052e-05,0.000000155
200.5,8940,356,35.5,1.3741e-05,0.000000155
202,8940,357,35.5,1.37768e-05,0.000000155
203.5,8940,358,35.6,1.38125e-05,0.000000155
205,8940,358,35.6,1.38482e-05,0.000000155
206.5,8940,359,35.6,1.38838e-05,0.000000155
208,8940,360,35.7,1.39195e-05,0.000000155
209.5,8940,360,35.7,1.39552e-05,0.000000156
211,8940,361,35.7,1.39909e-05,0.000000156
212.5,8940,362,35.7,1.40267e-05,0.000000156
214,8940,362,35.8,1.40626e-05,0.000000156
215.5,8940,363,35.8,1.40986e-05,0.000000156
217,8940,363,35.8,1.41347e-05,0.000000156
218.5,8940,364,35.9,1.4171e-05,0.000000156
220,8940,364,35.9,1.42073e-05,0.000000156
221.5,8940,365,35.9,1.42437e-05,0.000000156
223,8940,366,36,1.42802e-05,0.000000156
224.5,8940,366,36,1.43168e-05,0.000000157
226,8940,367,36,1.43534e-05,0.000000157
227.5,8940,367,36,1.43901e-05,0.000000157
229,8940,368,36.1,1.44268e-05,0.000000157
230.5,8940,368,36.1,1.44635e-05,0.000000157
232,8940,369,36.1,1.45001e-05,0.000000157
233.5,8940,369,36.2,1.45367e-05,0.000000157
235,8940,370,36.2,1.45731e-05,0.000000157
236.5,8940,370,36.2,1.46092e-05,0.000000158
238,8940,371,36.3,1.46452e-05,0.000000158
239.5,8940,371,36.3,1.46808e-05,0.000000158
241,8940,371,36.3,1.4716e-05,0.000000158
242.5,8940,372,36.3,1.47508e-05,0.000000158
244,8940,372,36.4,1.4785e-05,0.000000158
245.5,8940,373,36.4,1.48187e-05,0.000000158
247,8940,373,36.4,1.48516e-05,0.000000159
248.5,8940,374,36.5,1.48837e-05,0.000000159
250,8940,374,36.5,1.49148e-05,0.000000159
251.5,8940,374,36.5,1.4945e-05,0.000000159
253,8940,375,36.6,1.4974e-05,0.000000159
254.5,8940,375,36.6,1.50017e-05,0.00000016
256,8940,376,36.6,1.50281e-05,0.00000016
257.5,8940,376,36.7,1.50529e-05,0.00000016
259,8940,376,36.7,1.5076e-05,0.00000016
260.5,8940,377,36.7,1.50973e-05,0.000000161
262,8940,377,36.8,1.51167e-05,0.000000161
263.5,8940,378,36.8,1.51338e-05,0.000000161
265,8940,378,36.8,1.51487e-05,0.000000162
266.5,8940,378,36.9,1.5161e-05,0.000000162
268,8940,379,36.9,1.51706e-05,0.000000162
269.5,8940,379,36.9,1.51774e-05,0.000000162
271,8940,380,37,1.5181e-05,0.000000163
272.5,8940,380,37,1.51814e-05,0.000000163
274,8940,380,37,1.51782e-05,0.000000163
275.5,8940,381,37.1,1.51782e-05,0.000000163
277,8940,381,37.1,1.51782e-05,0.000000164
278.5,8940,381,37.1,1.51782e-05,0.000000164
280,8940,382,37.1,1.51782e-05,0.000000164
281.5,8940,382,37.2,1.51782e-05,0.000000165
283,8940,382,37.2,1.51782e-05,0.000000165
284.5,8940,383,37.2,1.51782e-05,0.000000165
286,8940,383,37.3,1.51782e-05,0.000000165
287.5,8940,383,37.3,1.51782e-05,0.000000166
289,8940,384,37.3,1.51782e-05,0.000000166
290.5,8940,384,37.3,1.51782e-05,0.000000166
292,8940,384,37.4,1.51782e-05,0.000000167
293.5,8940,385,37.4,1.51782e-05,0.000000167
295,8940,385,37.4,1.51782e-05,0.000000167
296.5,8940,385,37.4,1.51782e-05,0.000000167
298,8940,386,37.5,1.51782e-05,0.000000168
299.5,8940,386,37.5,1.51782e-05,0.000000168
300,8940,386,37.5,1.51782e-05,0.000000168