Folder: SolidProps/SolidProps/lib (part 2)

File: ALUMINUM_PURE.csv
T/K,rho/(kg/m3),cp/(J/(kg.K)),K/(W/(m.K)),alpha_thermal/(1/K),resistivity/(ohm.m)
1,2698,0.1,58.1,0,4.2E-10
2.5,2698,0.133,145,0,4.2E-10
4,2698,0.276,232,0,4.2E-10
5.5,2698,0.448,319,0,4.2E-10
7,2698,0.673,406,9.71011e-08,4.2E-10
8.5,2698,0.981,491,2.5574e-07,4.21E-10
10,2698,1.4,575,4.15065e-07,4.21E-10
11.5,2698,1.93,657,5.75058e-07,4.21E-10
13,2698,2.62,735,7.35701e-07,4.22E-10
14.5,2698,3.5,810,8.96976e-07,4.23E-10
16,2698,4.61,881,1.05886e-06,4.25E-10
17.5,2698,5.97,946,1.22135e-06,4.27E-10
19,2698,7.62,1010,1.38441e-06,4.3E-10
20.5,2698,9.6,1060,1.54803e-06,4.35E-10
22,2698,11.9,1100,1.71219e-06,4.4E-10
23.5,2698,14.7,1130,1.87688e-06,4.47E-10
25,2698,17.8,1160,2.04207e-06,4.56E-10
26.5,2698,21.4,1180,2.20775e-06,4.66E-10
28,2698,25.4,1190,2.37389e-06,4.78E-10
29.5,2698,29.8,1190,2.54049e-06,4.93E-10
31,2698,35.1,1190,2.70752e-06,5.1E-10
32.5,2698,41,1170,2.87497e-06,5.3E-10
34,2698,47.4,1150,3.04281e-06,5.53E-10
35.5,2698,54.2,1120,3.21103e-06,5.79E-10
37,2698,61.5,1090,3.37962e-06,6.08E-10
38.5,2698,69.3,1050,3.54854e-06,6.4E-10
40,2698,77.5,1020,3.71779e-06,6.75E-10
41.5,2698,86.3,977,3.88735e-06,7.15E-10
43,2698,95.4,938,4.0572e-06,7.57E-10
44.5,2698,105,898,4.22732e-06,8.04E-10
46,2698,115,857,4.39769e-06,8.54E-10
47.5,2698,125,817,4.56829e-06,9.08E-10
49,2698,135,777,4.73912e-06,9.66E-10
50.5,2698,145,740,4.91014e-06,0.00000000103
52,2698,156,707,5.08134e-06,0.00000000109
53.5,2698,167,676,5.25271e-06,0.00000000116
55,2698,177,646,5.42422e-06,0.00000000124
56.5,2698,188,618,5.59586e-06,0.00000000132
58,2698,199,591,5.76761e-06,0.0000000014
59.5,2698,210,566,5.93945e-06,0.00000000149
61,2698,221,543,6.11137e-06,0.00000000158
62.5,2698,232,522,6.28334e-06,0.00000000167
64,2698,243,503,6.45534e-06,0.00000000178
65.5,2698,254,485,6.62737e-06,0.00000000188
67,2698,265,468,6.7994e-06,0.00000000199
68.5,2698,276,452,6.97141e-06,0.0000000021
70,2698,287,438,7.14339e-06,0.00000000222
71.5,2698,298,424,7.31532e-06,0.00000000234
73,2698,308,412,7.48717e-06,0.00000000246
74.5,2698,319,400,7.65894e-06,0.00000000259
76,2698,329,389,7.83061e-06,0.00000000272
77.5,2698,340,378,8.00215e-06,0.00000000286
79,2698,350,369,8.17355e-06,0.000000003
80.5,2698,360,360,8.34479e-06,0.00000000314
82,2698,370,351,8.51585e-06,0.00000000328
83.5,2698,380,343,8.68672e-06,0.00000000343
85,2698,390,335,8.85738e-06,0.00000000358
86.5,2698,400,328,9.0278e-06,0.00000000373
88,2698,409,322,9.19798e-06,0.00000000389
89.5,2698,419,316,9.36789e-06,0.00000000404
91,2698,428,310,9.53752e-06,0.0000000042
92.5,2698,437,304,9.70685e-06,0.00000000436
94,2698,446,299,9.87585e-06,0.00000000452
95.5,2698,455,294,1.00445e-05,0.00000000468
97,2698,464,290,1.02128e-05,0.00000000485
98.5,2698,473,285,1.03808e-05,0.00000000501
100,2698,481,282,1.05483e-05,0.00000000518
101.5,2698,489,278,1.07155e-05,0.00000000534
103,2698,497,274,1.08822e-05,0.00000000551
104.5,2698,505,270,1.10484e-05,0.00000000567
106,2698,513,267,1.12143e-05,0.00000000584
107.5,2698,521,264,1.13796e-05,0.000000006
109,2698,528,261,1.15444e-05,0.00000000617
110.5,2698,535,259,1.17087e-05,0.00000000633
112,2698,543,256,1.18725e-05,0.0000000065
113.5,2698,550,254,1.20357e-05,0.00000000667
115,2698,556,252,1.21984e-05,0.00000000684
116.5,2698,563,250,1.23605e-05,0.000000007
118,2698,570,248,1.2522e-05,0.00000000717
119.5,2698,576,246,1.26828e-05,0.00000000734
121,2698,583,245,1.2843e-05,0.00000000751
122.5,2698,589,243,1.30026e-05,0.00000000768
124,2698,595,242,1.31615e-05,0.00000000785
125.5,2698,601,241,1.33196e-05,0.00000000802
127,2698,607,240,1.34771e-05,0.00000000818
128.5,2698,613,239,1.36339e-05,0.00000000835
130,2698,618,238,1.37899e-05,0.00000000852
131.5,2698,624,238,1.39451e-05,0.00000000869
133,2698,629,237,1.40996e-05,0.00000000886
134.5,2698,635,237,1.42532e-05,0.00000000903
136,2698,640,236,1.44061e-05,0.0000000092
137.5,2698,645,236,1.45581e-05,0.00000000937
139,2698,650,236,1.47093e-05,0.00000000954
140.5,2698,655,236,1.48595e-05,0.00000000971
142,2698,660,236,1.50089e-05,0.00000000988
143.5,2698,665,236,1.51574e-05,0.00000001
145,2698,669,236,1.5305e-05,0.0000000102
146.5,2698,674,236,1.54517e-05,0.0000000104
148,2698,678,236,1.55973e-05,0.0000000106
149.5,2698,682,237,1.5742e-05,0.0000000107
151,2698,687,236,1.58858e-05,0.0000000109
152.5,2698,691,236,1.60285e-05,0.0000000111
154,2698,696,235,1.61701e-05,0.0000000112
155.5,2698,700,235,1.63107e-05,0.0000000114
157,2698,704,234,1.64503e-05,0.0000000115
158.5,2698,708,234,1.65888e-05,0.0000000117
160,2698,713,234,1.67262e-05,0.0000000119
161.5,2698,717,233,1.68624e-05,0.000000012
163,2698,720,233,1.69976e-05,0.0000000122
164.5,2698,724,233,1.71316e-05,0.0000000124
166,2698,728,232,1.72644e-05,0.0000000125
167.5,2698,732,232,1.7396e-05,0.0000000127
169,2698,735,232,1.75264e-05,0.0000000129
170.5,2698,739,232,1.76556e-05,0.000000013
172,2698,743,232,1.77836e-05,0.0000000132
173.5,2698,746,232,1.79103e-05,0.0000000133
175,2698,749,232,1.80357e-05,0.0000000135
176.5,2698,753,231,1.81599e-05,0.0000000137
178,2698,756,231,1.82827e-05,0.0000000138
179.5,2698,759,231,1.84042e-05,0.000000014
181,2698,762,231,1.85244e-05,0.0000000141
182.5,2698,765,231,1.86432e-05,0.0000000143
184,2698,768,231,1.87606e-05,0.0000000145
185.5,2698,771,231,1.88766e-05,0.0000000146
187,2698,774,231,1.89913e-05,0.0000000148
188.5,2698,777,231,1.91044e-05,0.000000015
190,2698,780,231,1.92162e-05,0.0000000151
191.5,2698,782,232,1.93264e-05,0.0000000153
193,2698,785,232,1.94352e-05,0.0000000154
194.5,2698,788,232,1.95425e-05,0.0000000156
196,2698,790,232,1.96482e-05,0.0000000158
197.5,2698,793,232,1.97525e-05,0.0000000159
199,2698,795,232,1.98551e-05,0.0000000161
200.5,2698,798,232,1.99562e-05,0.0000000162
202,2698,800,232,2.00558e-05,0.0000000164
203.5,2698,803,232,2.01537e-05,0.0000000166
205,2698,805,232,2.02499e-05,0.0000000167
206.5,2698,807,232,2.03446e-05,0.0000000169
208,2698,809,232,2.04376e-05,0.000000017
209.5,2698,812,232,2.05289e-05,0.0000000172
211,2698,814,232,2.06185e-05,0.0000000174
212.5,2698,816,232,2.07064e-05,0.0000000175
214,2698,818,232,2.07925e-05,0.0000000177
215.5,2698,820,232,2.0877e-05,0.0000000179
217,2698,822,232,2.09596e-05,0.000000018
218.5,2698,824,231,2.10405e-05,0.0000000182
220,2698,826,231,2.11196e-05,0.0000000183
221.5,2698,828,231,2.11969e-05,0.0000000185
223,2698,830,231,2.12723e-05,0.0000000187
224.5,2698,832,231,2.13459e-05,0.0000000188
226,2698,833,231,2.14176e-05,0.000000019
227.5,2698,835,231,2.14875e-05,0.0000000191
229,2698,837,231,2.15554e-05,0.0000000193
230.5,2698,839,231,2.16214e-05,0.0000000195
232,2698,840,231,2.16855e-05,0.0000000196
233.5,2698,842,231,2.17476e-05,0.0000000198
235,2698,844,231,2.18078e-05,0.0000000199
236.5,2698,845,231,2.18659e-05,0.0000000201
238,2698,847,231,2.19221e-05,0.0000000203
239.5,2698,848,231,2.19762e-05,0.0000000204
241,2698,850,231,2.22548e-05,0.0000000206
242.5,2698,852,231,2.23388e-05,0.0000000208
244,2698,853,231,2.24201e-05,0.0000000209
245.5,2698,855,231,2.24985e-05,0.0000000211
247,2698,856,231,2.25739e-05,0.0000000212
248.5,2698,858,231,2.2646e-05,0.0000000214
250,2698,859,231,2.27145e-05,0.0000000216
251.5,2698,860,231,2.27793e-05,0.0000000217
253,2698,862,231,2.28402e-05,0.0000000219
254.5,2698,863,232,2.28968e-05,0.0000000221
256,2698,865,232,2.2949e-05,0.0000000222
257.5,2698,866,232,2.29964e-05,0.0000000224
259,2698,868,232,2.30388e-05,0.0000000225
260.5,2698,869,232,2.30758e-05,0.0000000227
262,2698,870,232,2.31073e-05,0.0000000229
263.5,2698,872,232,2.31328e-05,0.000000023
265,2698,873,232,2.31522e-05,0.0000000232
266.5,2698,874,232,2.3165e-05,0.0000000234
268,2698,876,232,2.31709e-05,0.0000000235
269.5,2698,877,232,2.31696e-05,0.0000000237
271,2698,878,232,2.31607e-05,0.0000000239
272.5,2698,880,232,2.31439e-05,0.000000024
274,2698,881,232,2.31187e-05,0.0000000242
275.5,2698,882,232,2.30849e-05,0.0000000243
277,2698,883,232,2.30419e-05,0.0000000245
278.5,2698,885,232,2.29894e-05,0.0000000247
280,2698,886,232,2.2927e-05,0.0000000248
281.5,2698,887,232,2.28543e-05,0.000000025
283,2698,888,232,2.27707e-05,0.0000000252
284.5,2698,890,232,2.26759e-05,0.0000000253
286,2698,891,232,2.25693e-05,0.0000000255
287.5,2698,892,232,2.24506e-05,0.0000000257
289,2698,893,232,2.23192e-05,0.0000000258
290.5,2698,894,232,2.21745e-05,0.000000026
292,2698,896,233,2.20162e-05,0.0000000262
293.5,2698,897,233,2.18436e-05,0.0000000263
295,2698,898,233,2.16563e-05,0.0000000265
296.5,2698,899,233,2.14537e-05,0.0000000267
298,2698,900,233,2.12352e-05,0.0000000268
299.5,2698,902,233,2.10002e-05,0.000000027
300,2698,902,233,2.09181e-05,0.0000000271

File: CARBON_FIBER_NORMAL_TO_FIBER.csv
T/K,rho/(kg/m3),cp/(J/(kg.K)),K/(W/(m.K)),alpha_thermal/(1/K),resistivity/(ohm.m)
1,1774,0.0184,0.005,0,0
2.5,1774,0.474,0.0106,0,0
4,1774,1.61,0.0146,0,0
5.5,1774,3.18,0.0184,0,0
7,1774,5.14,0.0223,0,0
8.5,1774,7.43,0.0261,0,0
10,1774,10,0.03,3.91251e-07,0
11.5,1774,12.6,0.0345,1.1232e-06,0
13,1774,15.5,0.0392,1.85512e-06,0
14.5,1774,18.4,0.044,2.58657e-06,0
16,1774,21.5,0.0489,3.31708e-06,0
17.5,1774,24.6,0.0538,4.04623e-06,0
19,1774,27.8,0.0588,4.7736e-06,0
20.5,1774,31,0.0635,5.49877e-06,0
22,1774,34,0.0679,6.22135e-06,0
23.5,1774,37.1,0.0722,6.94094e-06,0
25,1774,40.1,0.0764,7.65718e-06,0
26.5,1774,43.2,0.0806,8.36971e-06,0
28,1774,46.4,0.0847,9.07817e-06,0
29.5,1774,49.6,0.0887,9.78223e-06,0
31,1774,52.7,0.0926,1.04816e-05,0
32.5,1774,55.9,0.0964,1.11758e-05,0
34,1774,59.1,0.1,1.18648e-05,0
35.5,1774,62.5,0.104,1.25481e-05,0
37,1774,66,0.108,1.32254e-05,0
38.5,1774,69.7,0.111,1.38966e-05,0
40,1774,73.5,0.115,1.45613e-05,0
41.5,1774,77.8,0.119,1.52193e-05,0
43,1774,82.3,0.122,1.58704e-05,0
44.5,1774,86.9,0.126,1.65143e-05,0
46,1774,91.7,0.129,1.71508e-05,0
47.5,1774,96.6,0.133,1.77798e-05,0
49,1774,102,0.137,1.84009e-05,0
50.5,1774,107,0.142,1.9014e-05,0
52,1774,112,0.147,1.9619e-05,0
53.5,1774,117,0.152,2.02156e-05,0
55,1774,122,0.158,2.08038e-05,0
56.5,1774,128,0.163,2.13833e-05,0
58,1774,133,0.168,2.1954e-05,0
59.5,1774,138,0.174,2.25159e-05,0
61,1774,143,0.178,2.30686e-05,0
62.5,1774,148,0.181,2.36123e-05,0
64,1774,153,0.185,2.41466e-05,0
65.5,1774,158,0.188,2.46716e-05,0
67,1774,163,0.192,2.51872e-05,0
68.5,1774,168,0.196,2.56933e-05,0
70,1774,173,0.2,2.61897e-05,0
71.5,1774,179,0.205,2.66765e-05,0
73,1774,185,0.21,2.71535e-05,0
74.5,1774,190,0.216,2.76208e-05,0
76,1774,196,0.222,2.80783e-05,0
77.5,1774,202,0.229,2.8526e-05,0
79,1774,207,0.235,2.89638e-05,0
80.5,1774,212,0.243,2.93916e-05,0
82,1774,217,0.251,2.98096e-05,0
83.5,1774,221,0.26,3.02177e-05,0
85,1774,225,0.269,3.06159e-05,0
86.5,1774,229,0.277,3.10042e-05,0
88,1774,233,0.285,3.13826e-05,0
89.5,1774,237,0.293,3.17511e-05,0
91,1774,242,0.298,3.21098e-05,0
92.5,1774,247,0.303,3.24587e-05,0
94,1774,252,0.306,3.27978e-05,0
95.5,1774,258,0.309,3.31272e-05,0
97,1774,263,0.312,3.3447e-05,0
98.5,1774,268,0.314,3.37571e-05,0
100,1774,274,0.315,3.40577e-05,0
101.5,1774,279,0.319,3.43488e-05,0
103,1774,284,0.323,3.46305e-05,0
104.5,1774,289,0.327,3.49029e-05,0
106,1774,294,0.332,3.51661e-05,0
107.5,1774,300,0.336,3.542e-05,0
109,1774,305,0.341,3.56649e-05,0
110.5,1774,310,0.346,3.59009e-05,0
112,1774,315,0.351,3.61279e-05,0
113.5,1774,320,0.356,3.63462e-05,0
115,1774,325,0.361,3.65558e-05,0
116.5,1774,329,0.367,3.67569e-05,0
118,1774,334,0.372,3.69496e-05,0
119.5,1774,339,0.378,3.7134e-05,0
121,1774,344,0.384,3.73102e-05,0
122.5,1774,349,0.389,3.74783e-05,0
124,1774,354,0.395,3.76385e-05,0
125.5,1774,359,0.401,3.7791e-05,0
127,1774,364,0.407,3.79357e-05,0
128.5,1774,368,0.413,3.8073e-05,0
130,1774,373,0.419,3.82029e-05,0
131.5,1774,378,0.425,3.83256e-05,0
133,1774,383,0.432,3.84413e-05,0
134.5,1774,387,0.438,3.855e-05,0
136,1774,392,0.444,3.86519e-05,0
137.5,1774,397,0.45,3.87473e-05,0
139,1774,402,0.456,3.88362e-05,0
140.5,1774,406,0.462,3.89188e-05,0
142,1774,411,0.468,3.89952e-05,0
143.5,1774,416,0.474,3.90657e-05,0
145,1774,420,0.48,3.91304e-05,0
146.5,1774,425,0.486,3.91895e-05,0
148,1774,430,0.492,3.92431e-05,0
149.5,1774,434,0.499,3.92914e-05,0
151,1774,439,0.503,3.93346e-05,0
152.5,1774,444,0.507,3.93728e-05,0
154,1774,448,0.51,3.94062e-05,0
155.5,1774,453,0.514,3.9435e-05,0
157,1774,457,0.518,3.94594e-05,0
158.5,1774,462,0.522,3.94795e-05,0
160,1774,467,0.525,3.94954e-05,0
161.5,1774,471,0.529,3.95075e-05,0
163,1774,476,0.532,3.95158e-05,0
164.5,1774,480,0.535,3.95205e-05,0
166,1774,485,0.538,3.95218e-05,0
167.5,1774,489,0.542,3.95198e-05,0
169,1774,494,0.545,3.95148e-05,0
170.5,1774,499,0.548,3.95068e-05,0
172,1774,503,0.55,3.94961e-05,0
173.5,1774,508,0.553,3.94829e-05,0
175,1774,513,0.556,3.94673e-05,0
176.5,1774,517,0.559,3.94673e-05,0
178,1774,522,0.561,3.94673e-05,0
179.5,1774,527,0.564,3.94673e-05,0
181,1774,531,0.566,3.94673e-05,0
182.5,1774,536,0.568,3.94673e-05,0
184,1774,541,0.571,3.94673e-05,0
185.5,1774,545,0.573,3.94673e-05,0
187,1774,550,0.575,3.94673e-05,0
188.5,1774,555,0.577,3.94673e-05,0
190,1774,560,0.579,3.94673e-05,0
191.5,1774,564,0.581,3.94673e-05,0
193,1774,569,0.583,3.94673e-05,0
194.5,1774,574,0.584,3.94673e-05,0
196,1774,579,0.586,3.94673e-05,0
197.5,1774,584,0.588,3.94673e-05,0
199,1774,589,0.589,3.94673e-05,0
200.5,1774,594,0.59,3.94673e-05,0
202,1774,599,0.591,3.94673e-05,0
203.5,1774,605,0.591,3.94673e-05,0
205,1774,610,0.591,3.94673e-05,0
206.5,1774,616,0.592,3.94673e-05,0
208,1774,621,0.592,3.94673e-05,0
209.5,1774,627,0.592,3.94673e-05,0
211,1774,633,0.592,3.94673e-05,0
212.5,1774,638,0.593,3.94673e-05,0
214,1774,644,0.593,3.94673e-05,0
215.5,1774,649,0.593,3.94673e-05,0
217,1774,655,0.593,3.94673e-05,0
218.5,1774,661,0.593,3.94673e-05,0
220,1774,666,0.593,3.94673e-05,0
221.5,1774,672,0.593,3.94673e-05,0
223,1774,678,0.593,3.94673e-05,0
224.5,1774,683,0.593,3.94673e-05,0
226,1774,689,0.593,3.94673e-05,0
227.5,1774,694,0.593,3.94673e-05,0
229,1774,700,0.593,3.94673e-05,0
230.5,1774,706,0.593,3.94673e-05,0
232,1774,711,0.594,3.94673e-05,0
233.5,1774,717,0.594,3.94673e-05,0
235,1774,722,0.594,3.94673e-05,0
236.5,1774,728,0.594,3.94673e-05,0
238,1774,733,0.595,3.94673e-05,0
239.5,1774,739,0.595,3.94673e-05,0
241,1774,745,0.596,3.94673e-05,0
242.5,1774,750,0.596,3.94673e-05,0
244,1774,755,0.597,3.94673e-05,0
245.5,1774,761,0.597,3.94673e-05,0
247,1774,766,0.598,3.94673e-05,0
248.5,1774,772,0.599,3.94673e-05,0
250,1774,777,0.6,3.94673e-05,0
251.5,1774,782,0.602,3.94673e-05,0
253,1774,786,0.604,3.94673e-05,0
254.5,1774,791,0.606,3.94673e-05,0
256,1774,796,0.608,3.94673e-05,0
257.5,1774,800,0.61,3.94673e-05,0
259,1774,805,0.612,3.94673e-05,0
260.5,1774,810,0.614,3.94673e-05,0
262,1774,815,0.616,3.94673e-05,0
263.5,1774,820,0.618,3.94673e-05,0
265,1774,825,0.62,3.94673e-05,0
266.5,1774,830,0.622,3.94673e-05,0
268,1774,835,0.624,3.94673e-05,0
269.5,1774,841,0.626,3.94673e-05,0
271,1774,846,0.628,3.94673e-05,0
272.5,1774,852,0.629,3.94673e-05,0
274,1774,857,0.631,3.94673e-05,0
275.5,1774,863,0.633,3.94673e-05,0
277,1774,869,0.635,3.94673e-05,0
278.5,1774,875,0.636,3.94673e-05,0
280,1774,881,0.638,3.94673e-05,0
281.5,1774,888,0.639,3.94673e-05,0
283,1774,894,0.641,3.94673e-05,0
284.5,1774,901,0.642,3.94673e-05,0
286,1774,907,0.643,3.94673e-05,0
287.5,1774,914,0.645,3.94673e-05,0
289,1774,922,0.646,3.94673e-05,0
290.5,1774,929,0.647,3.94673e-05,0
292,1774,936,0.647,3.94673e-05,0
293.5,1774,944,0.648,3.94673e-05,0
295,1774,952,0.649,3.94673e-05,0
296.5,1774,960,0.649,3.94673e-05,0
298,1774,969,0.65,3.94673e-05,0
299.5,1774,977,0.65,3.94673e-05,0
300,1774,980,0.65,3.94673e-05,0

File: CARBON_FIBER_PARALLEL.csv
T/K,rho/(kg/m3),cp/(J/(kg.K)),K/(W/(m.K)),alpha_thermal/(1/K),resistivity/(ohm.m)
1,1774,0.0184,0.018,-0.000001,0.00002
2.5,1774,0.474,0.0217,-0.000001,0.0000199
4,1774,1.61,0.0289,-0.000001,0.0000199
5.5,1774,3.18,0.035,-0.000001,0.0000199
7,1774,5.14,0.0403,-0.000001,0.0000198
8.5,1774,7.43,0.0452,-0.000001,0.0000198
10,1774,10,0.05,-0.000001,0.0000197
11.5,1774,12.6,0.0562,-0.000001,0.0000197
13,1774,15.5,0.0629,-0.000001,0.0000197
14.5,1774,18.4,0.0701,-0.000001,0.0000196
16,1774,21.5,0.0776,-0.000001,0.0000196
17.5,1774,24.6,0.0856,-0.000001,0.0000196
19,1774,27.8,0.0941,-0.000001,0.0000195
20.5,1774,31,0.103,-0.000001,0.0000195
22,1774,34,0.112,-0.000001,0.0000194
23.5,1774,37.1,0.122,-0.000001,0.0000194
25,1774,40.1,0.132,-0.000001,0.0000194
26.5,1774,43.2,0.143,-0.000001,0.0000193
28,1774,46.4,0.154,-0.000001,0.0000193
29.5,1774,49.6,0.166,-0.000001,0.0000192
31,1774,52.7,0.178,-0.000001,0.0000192
32.5,1774,55.9,0.192,-0.000001,0.0000192
34,1774,59.1,0.205,-0.000001,0.0000191
35.5,1774,62.5,0.219,-0.000001,0.0000191
37,1774,66,0.234,-0.000001,0.000019
38.5,1774,69.7,0.249,-0.000001,0.000019
40,1774,73.5,0.265,-0.000001,0.000019
41.5,1774,77.8,0.281,-0.000001,0.0000189
43,1774,82.3,0.298,-0.000001,0.0000189
44.5,1774,86.9,0.315,-0.000001,0.0000189
46,1774,91.7,0.333,-0.000001,0.0000188
47.5,1774,96.6,0.35,-0.000001,0.0000188
49,1774,102,0.368,-0.000001,0.0000187
50.5,1774,107,0.385,-0.000001,0.0000187
52,1774,112,0.401,-0.000001,0.0000187
53.5,1774,117,0.418,-0.000001,0.0000186
55,1774,122,0.435,-0.000001,0.0000186
56.5,1774,128,0.453,-0.000001,0.0000186
58,1774,133,0.472,-0.000001,0.0000185
59.5,1774,138,0.491,-0.000001,0.0000185
61,1774,143,0.518,-0.000001,0.0000184
62.5,1774,148,0.546,-0.000001,0.0000184
64,1774,153,0.575,-0.000001,0.0000184
65.5,1774,158,0.605,-0.000001,0.0000183
67,1774,163,0.636,-0.000001,0.0000183
68.5,1774,168,0.668,-0.000001,0.0000182
70,1774,173,0.7,-0.000001,0.0000182
71.5,1774,179,0.726,-0.000001,0.0000182
73,1774,185,0.753,-0.000001,0.0000181
74.5,1774,190,0.781,-0.000001,0.0000181
76,1774,196,0.81,-0.000001,0.000018
77.5,1774,202,0.842,-0.000001,0.000018
79,1774,207,0.876,-0.000001,0.000018
80.5,1774,212,0.917,-0.000001,0.0000179
82,1774,217,0.968,-0.000001,0.0000179
83.5,1774,221,1.02,-0.000001,0.0000179
85,1774,225,1.08,-0.000001,0.0000178
86.5,1774,229,1.13,-0.000001,0.0000178
88,1774,233,1.18,-0.000001,0.0000177
89.5,1774,237,1.24,-0.000001,0.0000177
91,1774,242,1.27,-0.000001,0.0000177
92.5,1774,247,1.31,-0.000001,0.0000176
94,1774,252,1.34,-0.000001,0.0000176
95.5,1774,258,1.36,-0.000001,0.0000175
97,1774,263,1.39,-0.000001,0.0000175
98.5,1774,268,1.41,-0.000001,0.0000175
100,1774,274,1.43,-0.000001,0.0000174
101.5,1774,279,1.46,-0.000001,0.0000174
103,1774,284,1.5,-0.000001,0.0000174
104.5,1774,289,1.54,-0.000001,0.0000173
106,1774,294,1.58,-0.000001,0.0000173
107.5,1774,300,1.62,-0.000001,0.0000172
109,1774,305,1.66,-0.000001,0.0000172
110.5,1774,310,1.71,-0.000001,0.0000172
112,1774,315,1.75,-0.000001,0.0000171
113.5,1774,320,1.8,-0.000001,0.0000171
115,1774,325,1.85,-0.000001,0.000017
116.5,1774,329,1.9,-0.000001,0.000017
118,1774,334,1.95,-0.000001,0.000017
119.5,1774,339,2,-0.000001,0.0000169
121,1774,344,2.05,-0.000001,0.0000169
122.5,1774,349,2.11,-0.000001,0.0000168
124,1774,354,2.16,-0.000001,0.0000168
125.5,1774,359,2.21,-0.000001,0.0000168
127,1774,364,2.27,-0.000001,0.0000167
128.5,1774,368,2.33,-0.000001,0.0000167
130,1774,373,2.38,-0.000001,0.0000167
131.5,1774,378,2.44,-0.000001,0.0000166
133,1774,383,2.5,-0.000001,0.0000166
134.5,1774,387,2.55,-0.000001,0.0000165
136,1774,392,2.61,-0.000001,0.0000165
137.5,1774,397,2.67,-0.000001,0.0000165
139,1774,402,2.73,-0.000001,0.0000164
140.5,1774,406,2.79,-0.000001,0.0000164
142,1774,411,2.84,-0.000001,0.0000163
143.5,1774,416,2.9,-0.000001,0.0000163
145,1774,420,2.96,-0.000001,0.0000163
146.5,1774,425,3.02,-0.000001,0.0000162
148,1774,430,3.07,-0.000001,0.0000162
149.5,1774,434,3.14,-0.000001,0.0000162
151,1774,439,3.18,-0.000001,0.0000161
152.5,1774,444,3.22,-0.000001,0.0000161
154,1774,448,3.26,-0.000001,0.000016
155.5,1774,453,3.3,-0.000001,0.000016
157,1774,457,3.34,-0.000001,0.000016
158.5,1774,462,3.38,-0.000001,0.0000159
160,1774,467,3.42,-0.000001,0.0000159
161.5,1774,471,3.46,-0.000001,0.0000158
163,1774,476,3.5,-0.000001,0.0000158
164.5,1774,480,3.54,-0.000001,0.0000158
166,1774,485,3.57,-0.000001,0.0000157
167.5,1774,489,3.61,-0.000001,0.0000157
169,1774,494,3.65,-0.000001,0.0000157
170.5,1774,499,3.68,-0.000001,0.0000156
172,1774,503,3.72,-0.000001,0.0000156
173.5,1774,508,3.75,-0.000001,0.0000155
175,1774,513,3.79,-0.000001,0.0000155
176.5,1774,517,3.82,-0.000001,0.0000155
178,1774,522,3.86,-0.000001,0.0000154
179.5,1774,527,3.89,-0.000001,0.0000154
181,1774,531,3.92,-0.000001,0.0000153
182.5,1774,536,3.95,-0.000001,0.0000153
184,1774,541,3.99,-0.000001,0.0000153
185.5,1774,545,4.02,-0.000001,0.0000152
187,1774,550,4.05,-0.000001,0.0000152
188.5,1774,555,4.08,-0.000001,0.0000152
190,1774,560,4.11,-0.000001,0.0000151
191.5,1774,564,4.14,-0.000001,0.0000151
193,1774,569,4.17,-0.000001,0.000015
194.5,1774,574,4.2,-0.000001,0.000015
196,1774,579,4.23,-0.000001,0.000015
197.5,1774,584,4.25,-0.000001,0.0000149
199,1774,589,4.28,-0.000001,0.0000149
200.5,1774,594,4.31,-0.000001,0.0000148
202,1774,599,4.34,-0.000001,0.0000148
203.5,1774,605,4.37,-0.000001,0.0000148
205,1774,610,4.4,-0.000001,0.0000147
206.5,1774,616,4.43,-0.000001,0.0000147
208,1774,621,4.46,-0.000001,0.0000147
209.5,1774,627,4.48,-0.000001,0.0000146
211,1774,633,4.51,-0.000001,0.0000146
212.5,1774,638,4.54,-0.000001,0.0000145
214,1774,644,4.56,-0.000001,0.0000145
215.5,1774,649,4.59,-0.000001,0.0000145
217,1774,655,4.61,-0.000001,0.0000144
218.5,1774,661,4.64,-0.000001,0.0000144
220,1774,666,4.66,-0.000001,0.0000143
221.5,1774,672,4.69,-0.000001,0.0000143
223,1774,678,4.71,-0.000001,0.0000143
224.5,1774,683,4.73,-0.000001,0.0000142
226,1774,689,4.75,-0.000001,0.0000142
227.5,1774,694,4.77,-0.000001,0.0000142
229,1774,700,4.79,-0.000001,0.0000141
230.5,1774,706,4.81,-0.000001,0.0000141
232,1774,711,4.83,-0.000001,0.000014
233.5,1774,717,4.85,-0.000001,0.000014
235,1774,722,4.87,-0.000001,0.000014
236.5,1774,728,4.88,-0.000001,0.0000139
238,1774,733,4.9,-0.000001,0.0000139
239.5,1774,739,4.92,-0.000001,0.0000138
241,1774,745,4.93,-0.000001,0.0000138
242.5,1774,750,4.94,-0.000001,0.0000138
244,1774,755,4.96,-0.000001,0.0000137
245.5,1774,761,4.97,-0.000001,0.0000137
247,1774,766,4.98,-0.000001,0.0000137
248.5,1774,772,4.99,-0.000001,0.0000136
250,1774,777,5,-0.000001,0.0000136
251.5,1774,782,5,-0.000001,0.0000135
253,1774,786,5.01,-0.000001,0.0000135
254.5,1774,791,5.01,-0.000001,0.0000135
256,1774,796,5.02,-0.000001,0.0000134
257.5,1774,800,5.02,-0.000001,0.0000134
259,1774,805,5.02,-0.000001,0.0000133
260.5,1774,810,5.02,-0.000001,0.0000133
262,1774,815,5.03,-0.000001,0.0000133
263.5,1774,820,5.03,-0.000001,0.0000132
265,1774,825,5.03,-0.000001,0.0000132
266.5,1774,830,5.03,-0.000001,0.0000132
268,1774,835,5.03,-0.000001,0.0000131
269.5,1774,841,5.03,-0.000001,0.0000131
271,1774,846,5.03,-0.000001,0.000013
272.5,1774,852,5.03,-0.000001,0.000013
274,1774,857,5.03,-0.000001,0.000013
275.5,1774,863,5.03,-0.000001,0.0000129
277,1774,869,5.03,-0.000001,0.0000129
278.5,1774,875,5.03,-0.000001,0.0000128
280,1774,881,5.03,-0.000001,0.0000128
281.5,1774,888,5.03,-0.000001,0.0000128
283,1774,894,5.03,-0.000001,0.0000127
284.5,1774,901,5.03,-0.000001,0.0000127
286,1774,907,5.03,-0.000001,0.0000127
287.5,1774,914,5.03,-0.000001,0.0000126
289,1774,922,5.03,-0.000001,0.0000126
290.5,1774,929,5.03,-0.000001,0.0000125
292,1774,936,5.04,-0.000001,0.0000125
293.5,1774,944,5.04,-0.000001,0.0000125
295,1774,952,5.04,-0.000001,0.0000124
296.5,1774,960,5.04,-0.000001,0.0000124
298,1774,969,5.05,-0.000001,0.0000123
299.5,1774,977,5.05,-0.000001,0.0000123
300,1774,980,5.05,-0.000001,0.0000123