Folder: SolidProps/SolidProps/lib (part 5)

File: STAINLESS_STEEL_304L.csv
T/K,rho/(kg/m3),cp/(J/(kg.K)),K/(W/(m.K)),alpha_thermal/(1/K),resistivity/(ohm.m)
1,7900,0.464,0.042,0,0.00000049
2.5,7900,1.17,0.133,0,0.00000049
4,7900,1.88,0.227,0,0.00000049
5.5,7900,2.61,0.34,1.73885e-08,0.00000049
7,7900,3.37,0.47,5.48061e-08,0.00000049
8.5,7900,4.17,0.614,9.88479e-08,0.00000049
10,7900,5.02,0.77,1.49315e-07,0.00000049
11.5,7900,5.86,0.929,2.06013e-07,0.00000049
13,7900,6.76,1.09,2.68746e-07,0.00000049
14.5,7900,7.76,1.27,3.37322e-07,0.00000049
16,7900,8.88,1.45,4.11553e-07,0.000000491
17.5,7900,10.1,1.63,4.91251e-07,0.000000491
19,7900,11.5,1.82,5.7623e-07,0.000000491
20.5,7900,13.2,2.01,6.66308e-07,0.000000491
22,7900,15.1,2.21,7.61304e-07,0.000000492
23.5,7900,17.3,2.41,8.61038e-07,0.000000492
25,7900,19.6,2.61,9.65334e-07,0.000000493
26.5,7900,22.2,2.82,1.07402e-06,0.000000493
28,7900,25.1,3.02,1.18692e-06,0.000000494
29.5,7900,28.2,3.23,1.30386e-06,0.000000495
31,7900,31.6,3.44,1.42469e-06,0.000000495
32.5,7900,35.2,3.66,1.54922e-06,0.000000496
34,7900,39.2,3.87,1.67731e-06,0.000000497
35.5,7900,43.4,4.09,1.80878e-06,0.000000498
37,7900,47.9,4.3,1.94348e-06,0.000000498
38.5,7900,52.7,4.5,2.08125e-06,0.000000499
40,7900,57.8,4.7,2.22193e-06,0.0000005
41.5,7900,63.9,4.88,2.36539e-06,0.000000501
43,7900,70.3,5.05,2.51145e-06,0.000000502
44.5,7900,76.8,5.22,2.65998e-06,0.000000502
46,7900,83.3,5.38,2.81083e-06,0.000000503
47.5,7900,89.7,5.54,2.96385e-06,0.000000504
49,7900,96,5.7,3.11891e-06,0.000000505
50.5,7900,102,5.85,3.27586e-06,0.000000505
52,7900,106,6.01,3.43456e-06,0.000000506
53.5,7900,110,6.17,3.59489e-06,0.000000506
55,7900,114,6.32,3.75671e-06,0.000000507
56.5,7900,118,6.47,3.91988e-06,0.000000508
58,7900,122,6.61,4.08428e-06,0.000000509
59.5,7900,126,6.76,4.24979e-06,0.00000051
61,7900,132,6.89,4.41627e-06,0.000000511
62.5,7900,138,7.02,4.58361e-06,0.000000512
64,7900,143,7.14,4.75168e-06,0.000000514
65.5,7900,149,7.26,4.92037e-06,0.000000515
67,7900,155,7.38,5.08957e-06,0.000000517
68.5,7900,161,7.49,5.25915e-06,0.000000518
70,7900,167,7.6,5.42901e-06,0.00000052
71.5,7900,172,7.71,5.59904e-06,0.000000522
73,7900,176,7.81,5.82435e-06,0.000000523
74.5,7900,181,7.91,6.01995e-06,0.000000525
76,7900,185,8.01,6.21473e-06,0.000000526
77.5,7900,190,8.1,6.40853e-06,0.000000528
79,7900,194,8.2,6.60116e-06,0.000000529
80.5,7900,199,8.29,6.79247e-06,0.00000053
82,7900,204,8.38,6.9823e-06,0.000000532
83.5,7900,209,8.48,7.17052e-06,0.000000533
85,7900,214,8.57,7.35698e-06,0.000000534
86.5,7900,219,8.66,7.54156e-06,0.000000535
88,7900,224,8.74,7.72411e-06,0.000000537
89.5,7900,229,8.83,7.90454e-06,0.000000538
91,7900,232,8.92,8.08272e-06,0.000000539
92.5,7900,236,9,8.25855e-06,0.00000054
94,7900,239,9.08,8.43193e-06,0.000000541
95.5,7900,242,9.16,8.60277e-06,0.000000542
97,7900,245,9.24,8.77098e-06,0.000000543
98.5,7900,248,9.32,8.93649e-06,0.000000544
100,7900,250,9.4,9.09921e-06,0.000000545
101.5,7900,253,9.48,9.25908e-06,0.000000546
103,7900,256,9.55,9.41603e-06,0.000000548
104.5,7900,259,9.63,9.57001e-06,0.000000549
106,7900,262,9.7,9.72097e-06,0.00000055
107.5,7900,265,9.78,9.86886e-06,0.000000552
109,7900,268,9.85,1.00136e-05,0.000000553
110.5,7900,271,9.92,1.01553e-05,0.000000555
112,7900,274,9.99,1.02937e-05,0.000000556
113.5,7900,277,10.1,1.0429e-05,0.000000558
115,7900,280,10.1,1.0561e-05,0.000000559
116.5,7900,283,10.2,1.06898e-05,0.000000561
118,7900,286,10.3,1.08153e-05,0.000000562
119.5,7900,289,10.3,1.09375e-05,0.000000564
121,7900,292,10.4,1.10566e-05,0.000000566
122.5,7900,295,10.5,1.11723e-05,0.000000567
124,7900,298,10.5,1.12848e-05,0.000000569
125.5,7900,301,10.6,1.1394e-05,0.000000571
127,7900,304,10.7,1.15001e-05,0.000000573
128.5,7900,307,10.7,1.16029e-05,0.000000574
130,7900,310,10.8,1.17025e-05,0.000000576
131.5,7900,313,10.8,1.17989e-05,0.000000578
133,7900,315,10.9,1.18923e-05,0.00000058
134.5,7900,318,11,1.19825e-05,0.000000581
136,7900,321,11,1.20696e-05,0.000000583
137.5,7900,324,11.1,1.21538e-05,0.000000585
139,7900,327,11.1,1.22349e-05,0.000000587
140.5,7900,330,11.2,1.23131e-05,0.000000589
142,7900,332,11.2,1.23885e-05,0.00000059
143.5,7900,335,11.3,1.24609e-05,0.000000592
145,7900,338,11.3,1.25307e-05,0.000000594
146.5,7900,341,11.4,1.25976e-05,0.000000596
148,7900,343,11.5,1.2662e-05,0.000000598
149.5,7900,346,11.5,1.27237e-05,0.0000006
151,7900,349,11.6,1.27829e-05,0.000000601
152.5,7900,351,11.6,1.28396e-05,0.000000602
154,7900,354,11.7,1.28939e-05,0.000000604
155.5,7900,357,11.7,1.29459e-05,0.000000605
157,7900,359,11.8,1.29956e-05,0.000000606
158.5,7900,362,11.8,1.30432e-05,0.000000607
160,7900,364,11.9,1.30886e-05,0.000000609
161.5,7900,367,11.9,1.31321e-05,0.00000061
163,7900,369,12,1.31735e-05,0.000000611
164.5,7900,372,12,1.32131e-05,0.000000612
166,7900,374,12.1,1.3251e-05,0.000000614
167.5,7900,376,12.1,1.32871e-05,0.000000615
169,7900,379,12.1,1.33216e-05,0.000000616
170.5,7900,381,12.2,1.33546e-05,0.000000617
172,7900,383,12.2,1.33861e-05,0.000000619
173.5,7900,386,12.3,1.34163e-05,0.00000062
175,7900,388,12.3,1.34452e-05,0.000000621
176.5,7900,390,12.4,1.34729e-05,0.000000622
178,7900,392,12.4,1.34996e-05,0.000000623
179.5,7900,394,12.5,1.35252e-05,0.000000624
181,7900,396,12.5,1.35499e-05,0.000000626
182.5,7900,398,12.5,1.35738e-05,0.000000627
184,7900,400,12.6,1.3597e-05,0.000000628
185.5,7900,402,12.6,1.36195e-05,0.000000629
187,7900,404,12.7,1.36415e-05,0.00000063
188.5,7900,406,12.7,1.3663e-05,0.000000631
190,7900,408,12.7,1.36842e-05,0.000000632
191.5,7900,410,12.8,1.3705e-05,0.000000634
193,7900,411,12.8,1.37257e-05,0.000000635
194.5,7900,413,12.9,1.37462e-05,0.000000636
196,7900,415,12.9,1.37667e-05,0.000000637
197.5,7900,416,12.9,1.37873e-05,0.000000638
199,7900,418,13,1.3808e-05,0.000000639
200.5,7900,419,13,1.3829e-05,0.00000064
202,7900,420,13,1.38502e-05,0.000000642
203.5,7900,422,13.1,1.38719e-05,0.000000643
205,7900,423,13.1,1.3894e-05,0.000000644
206.5,7900,424,13.2,1.39166e-05,0.000000645
208,7900,424,13.2,1.39399e-05,0.000000646
209.5,7900,425,13.2,1.39639e-05,0.000000647
211,7900,426,13.3,1.39886e-05,0.000000649
212.5,7900,427,13.3,1.40142e-05,0.00000065
214,7900,428,13.3,1.40407e-05,0.000000651
215.5,7900,429,13.4,1.40681e-05,0.000000652
217,7900,429,13.4,1.40966e-05,0.000000653
218.5,7900,430,13.4,1.41262e-05,0.000000654
220,7900,431,13.5,1.41569e-05,0.000000656
221.5,7900,431,13.5,1.41889e-05,0.000000657
223,7900,432,13.5,1.42221e-05,0.000000658
224.5,7900,432,13.6,1.42566e-05,0.000000659
226,7900,433,13.6,1.42925e-05,0.00000066
227.5,7900,433,13.6,1.43299e-05,0.000000662
229,7900,434,13.7,1.43686e-05,0.000000663
230.5,7900,434,13.7,1.44089e-05,0.000000664
232,7900,435,13.7,1.44506e-05,0.000000665
233.5,7900,435,13.7,1.44939e-05,0.000000666
235,7900,436,13.8,1.45389e-05,0.000000668
236.5,7900,436,13.8,1.45854e-05,0.000000669
238,7900,436,13.8,1.46335e-05,0.00000067
239.5,7900,437,13.9,1.46833e-05,0.000000671
241,7900,437,13.9,1.47347e-05,0.000000673
242.5,7900,437,13.9,1.47878e-05,0.000000674
244,7900,438,14,1.48426e-05,0.000000675
245.5,7900,438,14,1.4899e-05,0.000000676
247,7900,438,14,1.49572e-05,0.000000677
248.5,7900,439,14,1.50169e-05,0.000000679
250,7900,439,14.1,1.50783e-05,0.00000068
251.5,7900,439,14.1,1.51414e-05,0.000000681
253,7900,439,14.1,1.5206e-05,0.000000683
254.5,7900,439,14.2,1.52722e-05,0.000000684
256,7900,439,14.2,1.534e-05,0.000000685
257.5,7900,439,14.2,1.54092e-05,0.000000687
259,7900,440,14.2,1.54799e-05,0.000000688
260.5,7900,440,14.3,1.55521e-05,0.000000689
262,7900,440,14.3,1.56255e-05,0.000000691
263.5,7900,440,14.3,1.57003e-05,0.000000692
265,7900,441,14.4,1.57763e-05,0.000000693
266.5,7900,441,14.4,1.58535e-05,0.000000694
268,7900,442,14.4,1.59318e-05,0.000000696
269.5,7900,442,14.4,1.6011e-05,0.000000697
271,7900,443,14.5,1.60912e-05,0.000000698
272.5,7900,444,14.5,1.61722e-05,0.0000007
274,7900,445,14.5,1.62539e-05,0.000000701
275.5,7900,445,14.5,1.63362e-05,0.000000702
277,7900,446,14.6,1.64189e-05,0.000000703
278.5,7900,448,14.6,1.65021e-05,0.000000704
280,7900,449,14.6,1.65855e-05,0.000000706
281.5,7900,450,14.6,1.6669e-05,0.000000707
283,7900,452,14.7,1.67525e-05,0.000000708
284.5,7900,453,14.7,1.68358e-05,0.000000709
286,7900,455,14.7,1.69188e-05,0.00000071
287.5,7900,457,14.7,1.70012e-05,0.000000711
289,7900,458,14.8,1.7083e-05,0.000000713
290.5,7900,461,14.8,1.7164e-05,0.000000714
292,7900,463,14.8,1.72439e-05,0.000000715
293.5,7900,465,14.8,1.73226e-05,0.000000716
295,7900,468,14.8,1.73998e-05,0.000000717
296.5,7900,470,14.9,1.74754e-05,0.000000718
298,7900,473,14.9,1.75492e-05,0.000000719
299.5,7900,476,14.9,1.76208e-05,0.00000072
300,7900,477,14.9,1.76442e-05,0.00000072

File: STAINLESS_STEEL_310L.csv
T/K,rho/(kg/m3),cp/(J/(kg.K)),K/(W/(m.K)),alpha_thermal/(1/K),resistivity/(ohm.m)
1,8027,0.62,0.0816,0,0.000000685
2.5,8027,1.43,0.216,0,0.000000684
4,8027,2.24,0.357,0,0.000000683
5.5,8027,3.01,0.504,0,0.000000683
7,8027,3.75,0.654,0,0.000000682
8.5,8027,4.49,0.807,0,0.000000682
10,8027,5.25,0.963,0,0.000000681
11.5,8027,6.02,1.12,0,0.000000681
13,8027,6.84,1.27,0,0.000000681
14.5,8027,7.74,1.43,0,0.00000068
16,8027,8.75,1.59,0,0.00000068
17.5,8027,9.88,1.75,0,0.00000068
19,8027,11.2,1.91,7.87248e-08,0.000000681
20.5,8027,12.6,2.08,1.86247e-07,0.000000681
22,8027,14.2,2.24,3.0417e-07,0.000000682
23.5,8027,16,2.41,4.31732e-07,0.000000683
25,8027,18.1,2.58,5.68201e-07,0.000000684
26.5,8027,20.5,2.75,7.12872e-07,0.000000685
28,8027,23.3,2.91,8.6507e-07,0.000000687
29.5,8027,26.2,3.07,1.02415e-06,0.000000688
31,8027,30.7,3.22,1.18949e-06,0.000000689
32.5,8027,35.5,3.36,1.36049e-06,0.00000069
34,8027,40.7,3.5,1.5366e-06,0.000000691
35.5,8027,46.2,3.63,1.71726e-06,0.000000693
37,8027,51.8,3.76,1.90196e-06,0.000000694
38.5,8027,57.6,3.89,2.0902e-06,0.000000695
40,8027,63.4,4.02,2.28152e-06,0.000000696
41.5,8027,68.6,4.16,2.47546e-06,0.000000697
43,8027,73.9,4.3,2.67161e-06,0.000000698
44.5,8027,79.1,4.43,2.86955e-06,0.000000699
46,8027,84.3,4.56,3.0689e-06,0.000000701
47.5,8027,89.5,4.69,3.2693e-06,0.000000702
49,8027,94.7,4.81,3.47041e-06,0.000000703
50.5,8027,100,4.93,3.6719e-06,0.000000704
52,8027,105,5.03,3.87347e-06,0.000000705
53.5,8027,111,5.14,4.07483e-06,0.000000706
55,8027,116,5.24,4.27571e-06,0.000000707
56.5,8027,122,5.33,4.47586e-06,0.000000709
58,8027,127,5.43,4.67503e-06,0.00000071
59.5,8027,132,5.52,4.87302e-06,0.000000711
61,8027,138,5.61,5.06961e-06,0.000000712
62.5,8027,143,5.7,5.26462e-06,0.000000713
64,8027,148,5.79,5.45786e-06,0.000000714
65.5,8027,153,5.88,5.64919e-06,0.000000715
67,8027,158,5.96,5.83844e-06,0.000000717
68.5,8027,163,6.05,6.02549e-06,0.000000718
70,8027,168,6.13,6.21021e-06,0.000000719
71.5,8027,172,6.21,6.39248e-06,0.00000072
73,8027,177,6.28,6.57222e-06,0.000000721
74.5,8027,182,6.36,6.74933e-06,0.000000722
76,8027,186,6.43,6.92373e-06,0.000000723
77.5,8027,190,6.5,7.09535e-06,0.000000724
79,8027,195,6.57,7.26415e-06,0.000000726
80.5,8027,199,6.64,7.43006e-06,0.000000727
82,8027,203,6.72,7.59306e-06,0.000000728
83.5,8027,207,6.79,7.7531e-06,0.000000729
85,8027,211,6.86,7.91016e-06,0.00000073
86.5,8027,215,6.93,8.06424e-06,0.000000731
88,8027,219,7,8.21531e-06,0.000000732
89.5,8027,223,7.07,8.36339e-06,0.000000734
91,8027,227,7.13,8.50847e-06,0.000000735
92.5,8027,230,7.19,8.65057e-06,0.000000736
94,8027,234,7.25,8.78971e-06,0.000000737
95.5,8027,237,7.31,8.9259e-06,0.000000738
97,8027,241,7.37,9.05917e-06,0.000000739
98.5,8027,244,7.42,9.18956e-06,0.00000074
100,8027,248,7.47,9.31711e-06,0.000000742
101.5,8027,251,7.53,9.44186e-06,0.000000743
103,8027,254,7.58,9.56384e-06,0.000000744
104.5,8027,257,7.64,9.68312e-06,0.000000745
106,8027,260,7.69,9.79973e-06,0.000000746
107.5,8027,264,7.74,9.91375e-06,0.000000747
109,8027,267,7.79,1.00252e-05,0.000000748
110.5,8027,270,7.84,1.01342e-05,0.000000749
112,8027,273,7.89,1.02408e-05,0.000000751
113.5,8027,276,7.94,1.0345e-05,0.000000752
115,8027,278,7.99,1.04469e-05,0.000000753
116.5,8027,281,8.04,1.05465e-05,0.000000754
118,8027,284,8.09,1.0644e-05,0.000000755
119.5,8027,287,8.14,1.07395e-05,0.000000756
121,8027,289,8.19,1.08329e-05,0.000000757
122.5,8027,292,8.23,1.09243e-05,0.000000759
124,8027,295,8.28,1.10139e-05,0.00000076
125.5,8027,297,8.32,1.11016e-05,0.000000761
127,8027,300,8.37,1.11876e-05,0.000000762
128.5,8027,302,8.41,1.12719e-05,0.000000763
130,8027,305,8.46,1.13546e-05,0.000000764
131.5,8027,307,8.5,1.14358e-05,0.000000765
133,8027,310,8.55,1.15155e-05,0.000000767
134.5,8027,312,8.59,1.15938e-05,0.000000768
136,8027,315,8.63,1.16707e-05,0.000000769
137.5,8027,317,8.68,1.17464e-05,0.00000077
139,8027,319,8.72,1.18209e-05,0.000000771
140.5,8027,321,8.76,1.18941e-05,0.000000772
142,8027,324,8.8,1.19663e-05,0.000000773
143.5,8027,326,8.84,1.20374e-05,0.000000774
145,8027,328,8.88,1.21076e-05,0.000000776
146.5,8027,330,8.92,1.21767e-05,0.000000777
148,8027,332,8.96,1.2245e-05,0.000000778
149.5,8027,334,9,1.23125e-05,0.000000779
151,8027,336,9.04,1.23791e-05,0.00000078
152.5,8027,339,9.08,1.2445e-05,0.000000781
154,8027,341,9.12,1.25102e-05,0.000000782
155.5,8027,343,9.16,1.25746e-05,0.000000784
157,8027,345,9.2,1.26385e-05,0.000000785
158.5,8027,347,9.24,1.27016e-05,0.000000786
160,8027,349,9.28,1.27642e-05,0.000000787
161.5,8027,351,9.32,1.28263e-05,0.000000788
163,8027,353,9.36,1.28878e-05,0.000000789
164.5,8027,355,9.4,1.29487e-05,0.00000079
166,8027,357,9.43,1.30092e-05,0.000000792
167.5,8027,359,9.47,1.30692e-05,0.000000793
169,8027,361,9.51,1.31286e-05,0.000000794
170.5,8027,362,9.55,1.31876e-05,0.000000795
172,8027,364,9.58,1.32462e-05,0.000000796
173.5,8027,366,9.62,1.33042e-05,0.000000797
175,8027,368,9.66,1.33618e-05,0.000000798
176.5,8027,370,9.69,1.34189e-05,0.000000799
178,8027,371,9.73,1.34756e-05,0.000000801
179.5,8027,373,9.76,1.35317e-05,0.000000802
181,8027,375,9.8,1.35874e-05,0.000000803
182.5,8027,377,9.84,1.36426e-05,0.000000804
184,8027,378,9.87,1.36972e-05,0.000000805
185.5,8027,380,9.91,1.37513e-05,0.000000806
187,8027,382,9.94,1.38048e-05,0.000000807
188.5,8027,383,9.98,1.38577e-05,0.000000809
190,8027,385,10,1.391e-05,0.00000081
191.5,8027,386,10,1.39617e-05,0.000000811
193,8027,388,10.1,1.40127e-05,0.000000812
194.5,8027,390,10.1,1.40631e-05,0.000000813
196,8027,391,10.1,1.41126e-05,0.000000814
197.5,8027,393,10.2,1.41615e-05,0.000000815
199,8027,394,10.2,1.42095e-05,0.000000817
200.5,8027,396,10.2,1.42567e-05,0.000000818
202,8027,397,10.3,1.4303e-05,0.000000819
203.5,8027,398,10.3,1.43484e-05,0.00000082
205,8027,400,10.3,1.43929e-05,0.000000821
206.5,8027,401,10.4,1.44363e-05,0.000000822
208,8027,403,10.4,1.44788e-05,0.000000823
209.5,8027,404,10.4,1.45202e-05,0.000000824
211,8027,405,10.5,1.45605e-05,0.000000826
212.5,8027,407,10.5,1.45996e-05,0.000000827
214,8027,408,10.5,1.46376e-05,0.000000828
215.5,8027,409,10.6,1.46744e-05,0.000000829
217,8027,410,10.6,1.47099e-05,0.00000083
218.5,8027,412,10.6,1.47441e-05,0.000000831
220,8027,413,10.7,1.4777e-05,0.000000832
221.5,8027,414,10.7,1.48086e-05,0.000000834
223,8027,415,10.7,1.48388e-05,0.000000835
224.5,8027,417,10.8,1.48676e-05,0.000000836
226,8027,418,10.8,1.48949e-05,0.000000837
227.5,8027,419,10.8,1.49208e-05,0.000000838
229,8027,420,10.9,1.49453e-05,0.000000839
230.5,8027,421,10.9,1.49682e-05,0.00000084
232,8027,423,10.9,1.49897e-05,0.000000842
233.5,8027,424,11,1.50097e-05,0.000000843
235,8027,425,11,1.50282e-05,0.000000844
236.5,8027,426,11,1.50451e-05,0.000000845
238,8027,427,11,1.50606e-05,0.000000846
239.5,8027,428,11.1,1.50746e-05,0.000000847
241,8027,429,11.1,1.50872e-05,0.000000848
242.5,8027,431,11.1,1.50983e-05,0.00000085
244,8027,432,11.2,1.51081e-05,0.000000851
245.5,8027,433,11.2,1.51164e-05,0.000000852
247,8027,434,11.2,1.51235e-05,0.000000853
248.5,8027,435,11.3,1.51293e-05,0.000000854
250,8027,436,11.3,1.51339e-05,0.000000855
251.5,8027,437,11.3,1.51374e-05,0.000000856
253,8027,438,11.3,1.51398e-05,0.000000857
254.5,8027,439,11.4,1.51413e-05,0.000000859
256,8027,440,11.4,1.51419e-05,0.00000086
257.5,8027,441,11.4,1.51418e-05,0.000000861
259,8027,442,11.5,1.51411e-05,0.000000862
260.5,8027,443,11.5,1.51398e-05,0.000000863
262,8027,444,11.5,1.51382e-05,0.000000864
263.5,8027,445,11.5,1.51364e-05,0.000000865
265,8027,446,11.6,1.51345e-05,0.000000867
266.5,8027,447,11.6,1.51328e-05,0.000000868
268,8027,448,11.6,1.51314e-05,0.000000869
269.5,8027,450,11.7,1.51306e-05,0.00000087
271,8027,451,11.7,1.51305e-05,0.000000871
272.5,8027,452,11.7,1.51305e-05,0.000000872
274,8027,453,11.7,1.51305e-05,0.000000873
275.5,8027,454,11.8,1.51305e-05,0.000000875
277,8027,455,11.8,1.51305e-05,0.000000876
278.5,8027,456,11.8,1.51305e-05,0.000000877
280,8027,457,11.9,1.51305e-05,0.000000878
281.5,8027,458,11.9,1.51305e-05,0.000000879
283,8027,459,11.9,1.51305e-05,0.00000088
284.5,8027,460,11.9,1.51305e-05,0.000000881
286,8027,462,12,1.51305e-05,0.000000882
287.5,8027,463,12,1.51305e-05,0.000000884
289,8027,464,12,1.51305e-05,0.000000885
290.5,8027,465,12,1.51305e-05,0.000000886
292,8027,466,12.1,1.51305e-05,0.000000887
293.5,8027,467,12.1,1.51305e-05,0.000000888
295,8027,469,12.1,1.51305e-05,0.000000889
296.5,8027,470,12.2,1.51305e-05,0.00000089
298,8027,471,12.2,1.51305e-05,0.000000892
299.5,8027,472,12.2,1.51305e-05,0.000000893
300,8027,473,12.2,1.51305e-05,0.000000893

File: TITANIUM_PURE.csv
T/K,rho/(kg/m3),cp/(J/(kg.K)),K/(W/(m.K)),alpha_thermal/(1/K),resistivity/(ohm.m)
1,4540,0.07,0.4,0,0
2.5,4540,0.157,3.33,0,0.00000000459
4,4540,0.298,5.16,0,0.0000000184
5.5,4540,0.457,7.01,0,0.0000000257
7,4540,0.654,8.91,0,0.0000000275
8.5,4540,0.912,10.8,0,0.0000000255
10,4540,1.25,12.7,7.41004e-08,0.000000021
11.5,4540,1.66,14.8,1.57922e-07,0.0000000211
13,4540,2.19,16.9,2.41164e-07,0.0000000213
14.5,4540,2.87,19,3.2383e-07,0.0000000214
16,4540,3.71,21.1,4.05923e-07,0.0000000215
17.5,4540,4.76,23.1,4.87447e-07,0.0000000217
19,4540,6.02,25.1,5.68405e-07,0.0000000219
20.5,4540,7.57,26.8,6.48801e-07,0.0000000221
22,4540,9.45,28.3,7.28638e-07,0.0000000224
23.5,4540,11.6,29.7,8.07919e-07,0.0000000228
25,4540,14.1,30.9,8.86648e-07,0.0000000232
26.5,4540,16.8,32,9.64828e-07,0.0000000237
28,4540,19.9,32.9,1.04246e-06,0.0000000242
29.5,4540,23.2,33.8,1.11955e-06,0.0000000248
31,4540,27.2,34.4,1.19611e-06,0.0000000255
32.5,4540,31.4,34.9,1.27213e-06,0.0000000263
34,4540,36,35.4,1.34761e-06,0.0000000271
35.5,4540,40.9,35.7,1.42257e-06,0.000000028
37,4540,46,35.9,1.497e-06,0.000000029
38.5,4540,51.4,36,1.57091e-06,0.00000003
40,4540,57.1,36,1.6443e-06,0.000000031
41.5,4540,63,35.9,1.71718e-06,0.000000032
43,4540,69.2,35.7,1.78955e-06,0.000000033
44.5,4540,75.5,35.5,1.8614e-06,0.000000034
46,4540,82,35.3,1.93275e-06,0.0000000352
47.5,4540,88.7,35,2.0036e-06,0.0000000363
49,4540,95.4,34.7,2.07396e-06,0.0000000376
50.5,4540,102,34.4,2.14381e-06,0.000000039
52,4540,109,34.3,2.21318e-06,0.0000000406
53.5,4540,116,34.1,2.28206e-06,0.0000000422
55,4540,123,34,2.35045e-06,0.000000044
56.5,4540,130,33.8,2.41836e-06,0.0000000457
58,4540,137,33.7,2.48579e-06,0.0000000475
59.5,4540,144,33.6,2.55275e-06,0.0000000494
61,4540,151,33.4,2.61924e-06,0.0000000512
62.5,4540,158,33.3,2.68526e-06,0.000000053
64,4540,164,33.1,2.75082e-06,0.0000000548
65.5,4540,170,33,2.81591e-06,0.0000000566
67,4540,177,32.8,2.88055e-06,0.0000000584
68.5,4540,183,32.7,2.94473e-06,0.0000000602
70,4540,189,32.5,3.00846e-06,0.000000062
71.5,4540,195,32.3,3.07175e-06,0.0000000636
73,4540,202,32.2,3.13459e-06,0.0000000652
74.5,4540,208,32,3.19699e-06,0.0000000668
76,4540,214,31.9,3.25895e-06,0.0000000684
77.5,4540,220,31.7,3.32048e-06,0.0000000701
79,4540,226,31.6,3.38157e-06,0.0000000718
80.5,4540,232,31.5,3.44224e-06,0.0000000737
82,4540,238,31.3,3.50249e-06,0.000000076
83.5,4540,243,31.2,3.56232e-06,0.0000000783
85,4540,249,31.1,3.62173e-06,0.0000000806
86.5,4540,255,31,3.68072e-06,0.0000000829
88,4540,260,30.9,3.73931e-06,0.0000000851
89.5,4540,265,30.8,3.79748e-06,0.0000000874
91,4540,270,30.7,3.85526e-06,0.0000000891
92.5,4540,276,30.6,3.91263e-06,0.0000000908
94,4540,281,30.5,3.96961e-06,0.0000000923
95.5,4540,286,30.4,4.02619e-06,0.0000000937
97,4540,291,30.2,4.08239e-06,0.000000095
98.5,4540,295,30.1,4.13819e-06,0.0000000963
100,4540,300,30,4.19362e-06,0.0000000975
101.5,4540,305,29.9,4.24866e-06,0.0000000991
103,4540,309,29.8,4.30333e-06,0.000000101
104.5,4540,313,29.7,4.35762e-06,0.000000102
106,4540,318,29.6,4.41155e-06,0.000000104
107.5,4540,322,29.5,4.46511e-06,0.000000106
109,4540,326,29.3,4.5183e-06,0.000000108
110.5,4540,330,29.2,4.57114e-06,0.000000109
112,4540,333,29.1,4.62362e-06,0.000000111
113.5,4540,337,29,4.67575e-06,0.000000113
115,4540,341,28.9,4.72752e-06,0.000000115
116.5,4540,344,28.8,4.77895e-06,0.000000117
118,4540,348,28.7,4.83004e-06,0.000000119
119.5,4540,351,28.7,4.88079e-06,0.000000121
121,4540,355,28.6,4.9312e-06,0.000000123
122.5,4540,358,28.5,4.98128e-06,0.000000125
124,4540,361,28.4,5.03104e-06,0.000000127
125.5,4540,364,28.3,5.08046e-06,0.000000129
127,4540,367,28.2,5.12957e-06,0.000000132
128.5,4540,370,28.1,5.17835e-06,0.000000134
130,4540,373,28,5.22682e-06,0.000000136
131.5,4540,376,27.9,5.27497e-06,0.000000139
133,4540,379,27.9,5.32282e-06,0.000000141
134.5,4540,381,27.8,5.37036e-06,0.000000143
136,4540,384,27.7,5.4176e-06,0.000000146
137.5,4540,387,27.6,5.46454e-06,0.000000148
139,4540,389,27.5,5.51119e-06,0.000000151
140.5,4540,392,27.5,5.55754e-06,0.000000153
142,4540,394,27.4,5.60361e-06,0.000000156
143.5,4540,396,27.3,5.64939e-06,0.000000158
145,4540,399,27.2,5.69488e-06,0.000000161
146.5,4540,401,27.2,5.7401e-06,0.000000164
148,4540,403,27.1,5.78505e-06,0.000000166
149.5,4540,405,27,5.82972e-06,0.000000169
151,4540,408,27,5.87412e-06,0.000000172
152.5,4540,410,26.9,5.91826e-06,0.000000175
154,4540,412,26.8,5.96214e-06,0.000000178
155.5,4540,414,26.7,6.00576e-06,0.000000181
157,4540,417,26.7,6.04913e-06,0.000000185
158.5,4540,419,26.6,6.09224e-06,0.000000188
160,4540,421,26.6,6.1351e-06,0.000000191
161.5,4540,423,26.5,6.17772e-06,0.000000194
163,4540,425,26.4,6.2201e-06,0.000000198
164.5,4540,427,26.4,6.26224e-06,0.000000201
166,4540,429,26.3,6.30415e-06,0.000000204
167.5,4540,431,26.2,6.34583e-06,0.000000208
169,4540,433,26.2,6.38728e-06,0.000000211
170.5,4540,435,26.1,6.4285e-06,0.000000214
172,4540,437,26.1,6.4695e-06,0.000000218
173.5,4540,438,26,6.51029e-06,0.000000221
175,4540,440,25.9,6.55086e-06,0.000000225
176.5,4540,442,25.9,6.59122e-06,0.000000228
178,4540,443,25.8,6.63137e-06,0.000000231
179.5,4540,445,25.8,6.67132e-06,0.000000235
181,4540,447,25.7,6.71106e-06,0.000000238
182.5,4540,448,25.6,6.75061e-06,0.000000241
184,4540,450,25.6,6.78997e-06,0.000000245
185.5,4540,451,25.5,6.82914e-06,0.000000248
187,4540,453,25.5,6.86811e-06,0.000000252
188.5,4540,454,25.4,6.90691e-06,0.000000255
190,4540,456,25.4,6.94552e-06,0.000000258
191.5,4540,457,25.3,6.98396e-06,0.000000262
193,4540,459,25.3,7.02222e-06,0.000000265
194.5,4540,460,25.2,7.06032e-06,0.000000268
196,4540,462,25.1,7.09824e-06,0.000000271
197.5,4540,463,25.1,7.136e-06,0.000000275
199,4540,464,25,7.17361e-06,0.000000278
200.5,4540,465,25,7.21105e-06,0.000000281
202,4540,467,24.9,7.24834e-06,0.000000283
203.5,4540,468,24.9,7.28549e-06,0.000000285
205,4540,469,24.8,7.32248e-06,0.000000287
206.5,4540,470,24.8,7.35933e-06,0.000000289
208,4540,471,24.7,7.39605e-06,0.000000291
209.5,4540,473,24.7,7.43262e-06,0.000000293
211,4540,474,24.6,7.46906e-06,0.000000295
212.5,4540,475,24.6,7.50538e-06,0.000000297
214,4540,476,24.5,7.54156e-06,0.000000299
215.5,4540,477,24.5,7.57763e-06,0.000000301
217,4540,478,24.4,7.61357e-06,0.000000303
218.5,4540,479,24.4,7.6494e-06,0.000000305
220,4540,480,24.3,7.68512e-06,0.000000307
221.5,4540,481,24.3,7.72072e-06,0.000000309
223,4540,482,24.2,7.75622e-06,0.000000311
224.5,4540,483,24.2,7.79162e-06,0.000000313
226,4540,484,24.1,7.82692e-06,0.000000315
227.5,4540,485,24,7.86212e-06,0.000000318
229,4540,486,24,7.89723e-06,0.00000032
230.5,4540,487,23.9,7.93225e-06,0.000000322
232,4540,488,23.9,7.96718e-06,0.000000325
233.5,4540,489,23.8,8.00203e-06,0.000000327
235,4540,489,23.7,8.0368e-06,0.00000033
236.5,4540,490,23.7,8.0715e-06,0.000000332
238,4540,491,23.6,8.10613e-06,0.000000335
239.5,4540,492,23.5,8.14068e-06,0.000000338
241,4540,493,23.5,8.17517e-06,0.000000341
242.5,4540,494,23.4,8.2096e-06,0.000000344
244,4540,495,23.3,8.24397e-06,0.000000347
245.5,4540,495,23.2,8.27829e-06,0.00000035
247,4540,496,23.2,8.31255e-06,0.000000353
248.5,4540,497,23.1,8.34676e-06,0.000000357
250,4540,498,23,8.38093e-06,0.00000036
251.5,4540,499,22.9,8.41506e-06,0.000000365
253,4540,500,22.8,8.44914e-06,0.000000369
254.5,4540,501,22.7,8.4832e-06,0.000000374
256,4540,502,22.6,8.51722e-06,0.000000379
257.5,4540,503,22.5,8.55121e-06,0.000000383
259,4540,503,22.4,8.58518e-06,0.000000388
260.5,4540,504,22.3,8.61913e-06,0.000000393
262,4540,505,22.2,8.65305e-06,0.000000397
263.5,4540,506,22.1,8.68697e-06,0.000000402
265,4540,507,22,8.72087e-06,0.000000407
266.5,4540,508,21.9,8.75476e-06,0.000000411
268,4540,508,21.8,8.78865e-06,0.000000416
269.5,4540,509,21.7,8.82254e-06,0.00000042
271,4540,510,21.6,8.85643e-06,0.000000424
272.5,4540,511,21.5,8.89033e-06,0.000000429
274,4540,512,21.4,8.92423e-06,0.000000433
275.5,4540,512,21.3,8.95815e-06,0.000000437
277,4540,513,21.2,8.99208e-06,0.000000441
278.5,4540,514,21.2,9.02603e-06,0.000000444
280,4540,514,21.1,9.06001e-06,0.000000448
281.5,4540,515,21,9.09401e-06,0.000000452
283,4540,516,20.9,9.12804e-06,0.000000455
284.5,4540,516,20.8,9.1621e-06,0.000000458
286,4540,517,20.7,9.19619e-06,0.000000461
287.5,4540,518,20.6,9.23033e-06,0.000000464
289,4540,518,20.5,9.26451e-06,0.000000467
290.5,4540,519,20.5,9.29874e-06,0.000000469
292,4540,519,20.4,9.33301e-06,0.000000472
293.5,4540,520,20.3,9.36734e-06,0.000000474
295,4540,520,20.2,9.40172e-06,0.000000476
296.5,4540,521,20.2,9.43617e-06,0.000000477
298,4540,521,20.1,9.47067e-06,0.000000479
299.5,4540,522,20,9.50524e-06,0.00000048
300,4540,522,20,9.51678e-06,0.00000048