Folder: SolidProps/SolidProps/lib

File: ALUMINUM_ALLOY_5083-T0.csv
T/K,rho/(kg/m3),cp/(J/(kg.K)),K/(W/(m.K)),alpha_thermal/(1/K),resistivity/(ohm.m)
1,2657,0.051,0.677,0,0.0000000303
2.5,2657,0.143,1.85,0,0.0000000303
4,2657,0.28,3.12,0,0.0000000303
5.5,2657,0.448,4.44,0,0.0000000303
7,2657,0.673,5.8,0,0.0000000303
8.5,2657,0.981,7.19,0,0.0000000303
10,2657,1.4,8.6,0,0.0000000303
11.5,2657,1.93,9.98,3.79112e-08,0.0000000303
13,2657,2.62,11.4,1.33804e-07,0.0000000303
14.5,2657,3.5,12.8,2.36567e-07,0.0000000303
16,2657,4.61,14.1,3.45977e-07,0.0000000303
17.5,2657,5.97,15.5,4.61814e-07,0.0000000303
19,2657,7.62,16.9,5.8386e-07,0.0000000303
20.5,2657,9.6,18.3,7.11903e-07,0.0000000303
22,2657,11.9,19.6,8.45731e-07,0.0000000303
23.5,2657,14.7,21,9.85135e-07,0.0000000303
25,2657,17.8,22.3,1.12991e-06,0.0000000303
26.5,2657,21.4,23.6,1.27985e-06,0.0000000303
28,2657,25.4,24.9,1.43476e-06,0.0000000303
29.5,2657,29.8,26.2,1.59444e-06,0.0000000303
31,2657,35.1,27.4,1.75869e-06,0.0000000304
32.5,2657,41,28.6,1.92733e-06,0.0000000304
34,2657,47.4,29.8,2.10017e-06,0.0000000304
35.5,2657,54.2,31,2.27701e-06,0.0000000304
37,2657,61.5,32.2,2.45767e-06,0.0000000304
38.5,2657,69.3,33.4,2.64198e-06,0.0000000304
40,2657,77.5,34.5,2.82975e-06,0.0000000304
41.5,2657,86.3,35.7,3.02082e-06,0.0000000304
43,2657,95.4,36.8,3.215e-06,0.0000000305
44.5,2657,105,38,3.41212e-06,0.0000000305
46,2657,115,39.1,3.61203e-06,0.0000000305
47.5,2657,125,40.2,3.81455e-06,0.0000000306
49,2657,135,41.3,4.01952e-06,0.0000000307
50.5,2657,145,42.3,4.22679e-06,0.0000000307
52,2657,156,43.3,4.43618e-06,0.0000000308
53.5,2657,167,44.3,4.64757e-06,0.0000000309
55,2657,177,45.2,4.86078e-06,0.000000031
56.5,2657,188,46.1,5.07567e-06,0.0000000312
58,2657,199,47,5.29209e-06,0.0000000313
59.5,2657,210,47.9,5.50991e-06,0.0000000314
61,2657,221,48.8,5.72897e-06,0.0000000316
62.5,2657,232,49.7,5.94915e-06,0.0000000318
64,2657,243,50.6,6.1703e-06,0.0000000319
65.5,2657,254,51.5,6.39229e-06,0.0000000321
67,2657,265,52.3,6.61498e-06,0.0000000323
68.5,2657,276,53.2,6.83827e-06,0.0000000325
70,2657,287,54,7.062e-06,0.0000000327
71.5,2657,298,54.8,7.28607e-06,0.0000000328
73,2657,308,55.6,7.51035e-06,0.000000033
74.5,2657,319,56.4,7.73473e-06,0.0000000331
76,2657,329,57.1,7.95908e-06,0.0000000333
77.5,2657,340,57.8,8.18329e-06,0.0000000334
79,2657,350,58.5,8.40726e-06,0.0000000336
80.5,2657,360,59.2,8.63087e-06,0.0000000338
82,2657,370,59.8,8.85402e-06,0.0000000339
83.5,2657,380,60.5,9.07661e-06,0.0000000341
85,2657,390,61.1,9.29853e-06,0.0000000343
86.5,2657,400,61.7,9.51969e-06,0.0000000345
88,2657,409,62.2,9.73998e-06,0.0000000347
89.5,2657,419,62.8,9.95933e-06,0.0000000348
91,2657,428,63.4,1.01776e-05,0.000000035
92.5,2657,437,64,1.03948e-05,0.0000000352
94,2657,446,64.6,1.06107e-05,0.0000000354
95.5,2657,455,65.2,1.08254e-05,0.0000000355
97,2657,464,65.8,1.10386e-05,0.0000000357
98.5,2657,473,66.4,1.12504e-05,0.0000000359
100,2657,481,67,1.14607e-05,0.000000036
101.5,2657,489,67.6,1.16693e-05,0.0000000362
103,2657,497,68.1,1.18762e-05,0.0000000364
104.5,2657,505,68.7,1.20814e-05,0.0000000366
106,2657,513,69.2,1.22848e-05,0.0000000367
107.5,2657,521,69.8,1.24862e-05,0.0000000369
109,2657,528,70.3,1.26858e-05,0.0000000371
110.5,2657,535,70.8,1.28833e-05,0.0000000373
112,2657,543,71.3,1.30787e-05,0.0000000374
113.5,2657,550,71.9,1.3272e-05,0.0000000376
115,2657,556,72.4,1.34631e-05,0.0000000378
116.5,2657,563,72.9,1.3652e-05,0.000000038
118,2657,570,73.4,1.38386e-05,0.0000000381
119.5,2657,576,73.9,1.40228e-05,0.0000000383
121,2657,583,74.3,1.42047e-05,0.0000000385
122.5,2657,589,74.8,1.43842e-05,0.0000000387
124,2657,595,75.3,1.45612e-05,0.0000000388
125.5,2657,601,75.8,1.47358e-05,0.000000039
127,2657,607,76.2,1.49078e-05,0.0000000392
128.5,2657,613,76.7,1.50772e-05,0.0000000394
130,2657,618,77.2,1.5244e-05,0.0000000396
131.5,2657,624,77.6,1.54082e-05,0.0000000397
133,2657,629,78.1,1.55698e-05,0.0000000399
134.5,2657,635,78.5,1.57287e-05,0.0000000401
136,2657,640,79,1.58849e-05,0.0000000403
137.5,2657,645,79.4,1.60383e-05,0.0000000405
139,2657,650,79.8,1.61891e-05,0.0000000406
140.5,2657,655,80.3,1.63371e-05,0.0000000408
142,2657,660,80.7,1.64823e-05,0.000000041
143.5,2657,665,81.1,1.66247e-05,0.0000000412
145,2657,669,81.6,0.00001676436,0.0000000414
146.5,2657,674,82,1.69012e-05,0.0000000415
148,2657,678,82.4,1.70353e-05,0.0000000417
149.5,2657,682,82.8,1.71665e-05,0.0000000419
151,2657,687,83.3,1.72949e-05,0.0000000421
152.5,2657,691,83.8,1.74206e-05,0.0000000423
154,2657,696,84.2,1.75434e-05,0.0000000424
155.5,2657,700,84.7,1.76634e-05,0.0000000426
157,2657,704,85.1,1.77807e-05,0.0000000428
158.5,2657,708,85.6,1.78952e-05,0.000000043
160,2657,713,86,1.80068e-05,0.0000000431
161.5,2657,717,86.5,1.81158e-05,0.0000000433
163,2657,720,87,1.8222e-05,0.0000000435
164.5,2657,724,87.4,1.83254e-05,0.0000000437
166,2657,728,87.9,1.84262e-05,0.0000000439
167.5,2657,732,88.3,1.85243e-05,0.000000044
169,2657,735,88.8,1.86197e-05,0.0000000442
170.5,2657,739,89.2,1.87124e-05,0.0000000444
172,2657,743,89.7,1.88026e-05,0.0000000446
173.5,2657,746,90.1,1.88902e-05,0.0000000447
175,2657,749,90.6,1.89752e-05,0.0000000449
176.5,2657,753,91,1.90577e-05,0.0000000451
178,2657,756,91.5,1.91377e-05,0.0000000453
179.5,2657,759,91.9,1.92153e-05,0.0000000455
181,2657,762,92.4,1.92905e-05,0.0000000456
182.5,2657,765,92.8,1.93633e-05,0.0000000458
184,2657,768,93.2,1.94338e-05,0.000000046
185.5,2657,771,93.7,1.9502e-05,0.0000000462
187,2657,774,94.1,1.95679e-05,0.0000000463
188.5,2657,777,94.6,1.96317e-05,0.0000000465
190,2657,780,95,1.96933e-05,0.0000000467
191.5,2657,782,95.5,1.97529e-05,0.0000000469
193,2657,785,95.9,1.98104e-05,0.0000000471
194.5,2657,788,96.4,1.98659e-05,0.0000000472
196,2657,790,96.8,1.99196e-05,0.0000000474
197.5,2657,793,97.3,1.99713e-05,0.0000000476
199,2657,795,97.7,2.00213e-05,0.0000000478
200.5,2657,798,98.1,2.00695e-05,0.0000000479
202,2657,800,98.6,2.01161e-05,0.0000000481
203.5,2657,803,99,2.0161e-05,0.0000000483
205,2657,805,99.5,2.02044e-05,0.0000000485
206.5,2657,807,99.9,2.02464e-05,0.0000000487
208,2657,809,100,2.02869e-05,0.0000000488
209.5,2657,812,101,2.03262e-05,0.000000049
211,2657,814,101,2.03641e-05,0.0000000492
212.5,2657,816,102,2.04009e-05,0.0000000494
214,2657,818,102,2.04366e-05,0.0000000496
215.5,2657,820,103,2.04713e-05,0.0000000497
217,2657,822,103,2.05051e-05,0.0000000499
218.5,2657,824,104,2.0538e-05,0.0000000501
220,2657,826,104,2.05702e-05,0.0000000503
221.5,2657,828,104,2.06017e-05,0.0000000504
223,2657,830,105,2.06326e-05,0.0000000506
224.5,2657,832,105,2.0663e-05,0.0000000508
226,2657,833,106,2.0693e-05,0.000000051
227.5,2657,835,106,2.07227e-05,0.0000000512
229,2657,837,107,2.07521e-05,0.0000000513
230.5,2657,839,107,2.07815e-05,0.0000000515
232,2657,840,108,2.08108e-05,0.0000000517
233.5,2657,842,108,2.08403e-05,0.0000000519
235,2657,844,108,2.08699e-05,0.000000052
236.5,2657,845,109,2.08998e-05,0.0000000522
238,2657,847,109,2.093e-05,0.0000000524
239.5,2657,848,110,2.09608e-05,0.0000000526
241,2657,850,110,2.09922e-05,0.0000000528
242.5,2657,852,111,2.10243e-05,0.0000000529
244,2657,853,111,2.10572e-05,0.0000000531
245.5,2657,855,112,2.10911e-05,0.0000000533
247,2657,856,112,2.1126e-05,0.0000000535
248.5,2657,858,113,2.11621e-05,0.0000000536
250,2657,859,113,2.11995e-05,0.0000000538
251.5,2657,860,113,2.12383e-05,0.000000054
253,2657,862,114,2.12786e-05,0.0000000542
254.5,2657,863,114,2.13206e-05,0.0000000544
256,2657,865,115,2.13644e-05,0.0000000545
257.5,2657,866,115,2.141e-05,0.0000000547
259,2657,868,116,2.14577e-05,0.0000000549
260.5,2657,869,116,2.15075e-05,0.0000000551
262,2657,870,117,2.15596e-05,0.0000000552
263.5,2657,872,117,2.16141e-05,0.0000000554
265,2657,873,118,2.16712e-05,0.0000000556
266.5,2657,874,118,2.17309e-05,0.0000000558
268,2657,876,118,2.17935e-05,0.000000056
269.5,2657,877,119,2.1859e-05,0.0000000561
271,2657,878,119,2.19276e-05,0.0000000563
272.5,2657,880,120,2.19994e-05,0.0000000565
274,2657,881,120,2.20746e-05,0.0000000567
275.5,2657,882,121,2.21533e-05,0.0000000568
277,2657,883,121,2.22357e-05,0.000000057
278.5,2657,885,122,2.23218e-05,0.0000000572
280,2657,886,122,2.24119e-05,0.0000000574
281.5,2657,887,123,2.25061e-05,0.0000000576
283,2657,888,123,2.26046e-05,0.0000000577
284.5,2657,890,123,2.27074e-05,0.0000000579
286,2657,891,124,2.28148e-05,0.0000000581
287.5,2657,892,124,2.29268e-05,0.0000000583
289,2657,893,125,2.30437e-05,0.0000000584
290.5,2657,894,125,2.31657e-05,0.0000000586
292,2657,896,126,2.32928e-05,0.0000000588
293.5,2657,897,126,2.34252e-05,0.000000059
295,2657,898,127,2.35631e-05,0.0000000592
296.5,2657,899,127,2.37066e-05,0.0000000593
298,2657,900,127,2.38559e-05,0.0000000595
299.5,2657,902,128,2.40112e-05,0.0000000597
300,2657,902,128,2.40644e-05,0.0000000598

File: ALUMINUM_ALLOY_6061-T6.csv
T/K,rho/(kg/m3),cp/(J/(kg.K)),K/(W/(m.K)),alpha_thermal/(1/K),resistivity/(ohm.m)
1,2712.6,0.051,2.2,0,0.0000000138
2.5,2712.6,0.143,5.93,0,0.0000000138
4,2712.6,0.28,9.53,0,0.0000000138
5.5,2712.6,0.448,13.1,0,0.0000000138
7,2712.6,0.673,16.6,0,0.0000000138
8.5,2712.6,0.981,20.2,0,0.0000000138
10,2712.6,1.4,23.8,0,0.0000000138
11.5,2712.6,1.93,27.7,0,0.0000000138
13,2712.6,2.62,31.7,0,0.0000000138
14.5,2712.6,3.5,35.7,0,0.0000000138
16,2712.6,4.61,39.7,0,0.0000000138
17.5,2712.6,5.97,43.6,0,0.0000000138
19,2712.6,7.62,47.5,6.63027e-08,0.0000000138
20.5,2712.6,9.6,51.3,1.61338e-07,0.0000000139
22,2712.6,11.9,54.6,2.72326e-07,0.0000000139
23.5,2712.6,14.7,57.9,3.98275e-07,0.0000000139
25,2712.6,17.8,61.1,5.38228e-07,0.0000000139
26.5,2712.6,21.4,64.2,6.91261e-07,0.0000000139
28,2712.6,25.4,67.2,8.56487e-07,0.0000000139
29.5,2712.6,29.8,70,1.03305e-06,0.0000000139
31,2712.6,35.1,72.9,1.22012e-06,0.000000014
32.5,2712.6,41,75.8,1.4169e-06,0.000000014
34,2712.6,47.4,78.6,1.62264e-06,0.000000014
35.5,2712.6,54.2,81.2,1.8366e-06,0.000000014
37,2712.6,61.5,83.8,2.05808e-06,0.000000014
38.5,2712.6,69.3,86.2,2.28639e-06,0.000000014
40,2712.6,77.5,88.5,2.52089e-06,0.0000000141
41.5,2712.6,86.3,90.5,2.76097e-06,0.0000000141
43,2712.6,95.4,92.3,3.00602e-06,0.0000000141
44.5,2712.6,105,94.1,3.25548e-06,0.0000000142
46,2712.6,115,95.8,3.5088e-06,0.0000000142
47.5,2712.6,125,97.4,3.76547e-06,0.0000000143
49,2712.6,135,99,4.02499e-06,0.0000000144
50.5,2712.6,145,101,4.28689e-06,0.0000000144
52,2712.6,156,103,4.55072e-06,0.0000000145
53.5,2712.6,167,104,4.81606e-06,0.0000000146
55,2712.6,177,106,5.0825e-06,0.0000000147
56.5,2712.6,188,108,5.34966e-06,0.0000000148
58,2712.6,199,109,5.61717e-06,0.0000000149
59.5,2712.6,210,111,5.88469e-06,0.0000000151
61,2712.6,221,111,6.1519e-06,0.0000000152
62.5,2712.6,232,112,6.41849e-06,0.0000000153
64,2712.6,243,112,6.68418e-06,0.0000000154
65.5,2712.6,254,112,6.94869e-06,0.0000000155
67,2712.6,265,113,7.21178e-06,0.0000000157
68.5,2712.6,276,113,7.4732e-06,0.0000000158
70,2712.6,287,113,7.73274e-06,0.000000016
71.5,2712.6,298,114,7.9902e-06,0.0000000161
73,2712.6,308,114,8.24539e-06,0.0000000163
74.5,2712.6,319,115,8.49812e-06,0.0000000164
76,2712.6,329,116,8.74825e-06,0.0000000166
77.5,2712.6,340,117,8.99562e-06,0.0000000168
79,2712.6,350,118,9.24011e-06,0.0000000169
80.5,2712.6,360,118,9.48158e-06,0.0000000171
82,2712.6,370,119,9.71994e-06,0.0000000173
83.5,2712.6,380,119,9.95508e-06,0.0000000175
85,2712.6,390,119,1.01869e-05,0.0000000176
86.5,2712.6,400,120,1.04154e-05,0.0000000178
88,2712.6,409,120,1.06404e-05,0.000000018
89.5,2712.6,419,120,1.08619e-05,0.0000000182
91,2712.6,428,120,1.10799e-05,0.0000000183
92.5,2712.6,437,120,1.12944e-05,0.0000000185
94,2712.6,446,120,1.15052e-05,0.0000000187
95.5,2712.6,455,121,1.17124e-05,0.0000000188
97,2712.6,464,121,1.19159e-05,0.000000019
98.5,2712.6,473,121,1.21158e-05,0.0000000192
100,2712.6,481,121,1.23121e-05,0.0000000194
101.5,2712.6,489,121,1.25048e-05,0.0000000195
103,2712.6,497,121,1.26939e-05,0.0000000197
104.5,2712.6,505,122,1.28793e-05,0.0000000199
106,2712.6,513,122,1.30613e-05,0.0000000201
107.5,2712.6,521,122,1.32397e-05,0.0000000202
109,2712.6,528,122,1.34146e-05,0.0000000204
110.5,2712.6,535,123,1.35861e-05,0.0000000206
112,2712.6,543,123,1.37542e-05,0.0000000208
113.5,2712.6,550,123,1.3919e-05,0.0000000209
115,2712.6,556,123,1.40804e-05,0.0000000211
116.5,2712.6,563,124,1.42387e-05,0.0000000213
118,2712.6,570,124,1.43938e-05,0.0000000215
119.5,2712.6,576,124,1.45458e-05,0.0000000216
121,2712.6,583,124,1.46948e-05,0.0000000218
122.5,2712.6,589,125,1.48408e-05,0.000000022
124,2712.6,595,125,1.4984e-05,0.0000000222
125.5,2712.6,601,125,1.51243e-05,0.0000000223
127,2712.6,607,125,1.52619e-05,0.0000000225
128.5,2712.6,613,126,1.53968e-05,0.0000000227
130,2712.6,618,126,1.55291e-05,0.0000000228
131.5,2712.6,624,126,1.5659e-05,0.000000023
133,2712.6,629,127,1.57864e-05,0.0000000232
134.5,2712.6,635,127,1.59114e-05,0.0000000234
136,2712.6,640,127,1.60342e-05,0.0000000235
137.5,2712.6,645,128,1.61548e-05,0.0000000237
139,2712.6,650,128,1.62733e-05,0.0000000239
140.5,2712.6,655,128,1.63898e-05,0.0000000241
142,2712.6,660,128,1.65043e-05,0.0000000242
143.5,2712.6,665,129,1.66169e-05,0.0000000244
145,2712.6,669,129,1.67278e-05,0.0000000246
146.5,2712.6,674,129,1.68368e-05,0.0000000248
148,2712.6,678,130,1.69443e-05,0.0000000249
149.5,2712.6,682,130,1.70501e-05,0.0000000251
151,2712.6,687,130,1.71545e-05,0.0000000253
152.5,2712.6,691,130,1.72574e-05,0.0000000254
154,2712.6,696,130,1.73589e-05,0.0000000256
155.5,2712.6,700,130,1.74591e-05,0.0000000258
157,2712.6,704,131,1.7558e-05,0.000000026
158.5,2712.6,708,131,1.76557e-05,0.0000000261
160,2712.6,713,131,1.77523e-05,0.0000000263
161.5,2712.6,717,131,1.78479e-05,0.0000000265
163,2712.6,720,131,1.79423e-05,0.0000000267
164.5,2712.6,724,131,1.80359e-05,0.0000000268
166,2712.6,728,131,1.81284e-05,0.000000027
167.5,2712.6,732,131,1.82201e-05,0.0000000272
169,2712.6,735,132,1.83109e-05,0.0000000274
170.5,2712.6,739,132,1.8401e-05,0.0000000275
172,2712.6,743,132,1.84902e-05,0.0000000277
173.5,2712.6,746,132,1.85787e-05,0.0000000279
175,2712.6,749,132,1.86665e-05,0.0000000281
176.5,2712.6,753,132,1.87536e-05,0.0000000282
178,2712.6,756,132,1.88401e-05,0.0000000284
179.5,2712.6,759,133,1.89259e-05,0.0000000286
181,2712.6,762,133,1.90111e-05,0.0000000287
182.5,2712.6,765,133,1.90956e-05,0.0000000289
184,2712.6,768,133,1.91796e-05,0.0000000291
185.5,2712.6,771,133,1.9263e-05,0.0000000293
187,2712.6,774,133,1.93458e-05,0.0000000294
188.5,2712.6,777,133,1.9428e-05,0.0000000296
190,2712.6,780,134,1.95096e-05,0.0000000298
191.5,2712.6,782,134,1.95907e-05,0.00000003
193,2712.6,785,134,1.96711e-05,0.0000000301
194.5,2712.6,788,134,1.9751e-05,0.0000000303
196,2712.6,790,134,1.98302e-05,0.0000000305
197.5,2712.6,793,135,1.99088e-05,0.0000000307
199,2712.6,795,135,1.99868e-05,0.0000000308
200.5,2712.6,798,135,2.00641e-05,0.000000031
202,2712.6,800,136,2.01407e-05,0.0000000312
203.5,2712.6,803,136,2.02166e-05,0.0000000314
205,2712.6,805,136,2.02917e-05,0.0000000315
206.5,2712.6,807,137,2.03661e-05,0.0000000317
208,2712.6,809,137,2.04397e-05,0.0000000319
209.5,2712.6,812,138,2.05125e-05,0.0000000321
211,2712.6,814,138,2.05845e-05,0.0000000322
212.5,2712.6,816,139,2.06555e-05,0.0000000324
214,2712.6,818,139,2.07256e-05,0.0000000326
215.5,2712.6,820,139,2.07947e-05,0.0000000327
217,2712.6,822,140,2.08628e-05,0.0000000329
218.5,2712.6,824,140,2.09299e-05,0.0000000331
220,2712.6,826,141,2.09959e-05,0.0000000333
221.5,2712.6,828,141,2.10607e-05,0.0000000334
223,2712.6,830,142,2.11244e-05,0.0000000336
224.5,2712.6,832,142,2.11869e-05,0.0000000338
226,2712.6,833,143,2.12481e-05,0.000000034
227.5,2712.6,835,143,2.1308e-05,0.0000000341
229,2712.6,837,144,2.13666e-05,0.0000000343
230.5,2712.6,839,144,2.14239e-05,0.0000000345
232,2712.6,840,145,2.14797e-05,0.0000000347
233.5,2712.6,842,145,2.1534e-05,0.0000000348
235,2712.6,844,146,2.15869e-05,0.000000035
236.5,2712.6,845,146,2.16383e-05,0.0000000352
238,2712.6,847,147,2.16881e-05,0.0000000354
239.5,2712.6,848,147,2.17363e-05,0.0000000355
241,2712.6,850,147,2.1783e-05,0.0000000357
242.5,2712.6,852,148,2.1828e-05,0.0000000359
244,2712.6,853,148,2.18713e-05,0.000000036
245.5,2712.6,855,149,2.1913e-05,0.0000000362
247,2712.6,856,149,2.19529e-05,0.0000000364
248.5,2712.6,858,150,2.19912e-05,0.0000000366
250,2712.6,859,150,2.20278e-05,0.0000000367
251.5,2712.6,860,150,2.20627e-05,0.0000000369
253,2712.6,862,151,2.20959e-05,0.0000000371
254.5,2712.6,863,151,2.21273e-05,0.0000000373
256,2712.6,865,151,2.21571e-05,0.0000000374
257.5,2712.6,866,152,2.21853e-05,0.0000000376
259,2712.6,868,152,2.22118e-05,0.0000000378
260.5,2712.6,869,152,2.22367e-05,0.000000038
262,2712.6,870,153,2.22601e-05,0.0000000381
263.5,2712.6,872,153,2.2282e-05,0.0000000383
265,2712.6,873,153,2.23024e-05,0.0000000385
266.5,2712.6,874,154,2.23214e-05,0.0000000386
268,2712.6,876,154,2.23391e-05,0.0000000388
269.5,2712.6,877,154,2.23556e-05,0.000000039
271,2712.6,878,155,2.2371e-05,0.0000000392
272.5,2712.6,880,155,2.23853e-05,0.0000000393
274,2712.6,881,155,2.23986e-05,0.0000000395
275.5,2712.6,882,155,2.24112e-05,0.0000000397
277,2712.6,883,156,2.24232e-05,0.0000000399
278.5,2712.6,885,156,2.24345e-05,0.00000004
280,2712.6,886,156,2.24456e-05,0.0000000402
281.5,2712.6,887,157,2.24564e-05,0.0000000404
283,2712.6,888,157,2.24673e-05,0.0000000406
284.5,2712.6,890,157,2.24783e-05,0.0000000407
286,2712.6,891,157,2.24897e-05,0.0000000409
287.5,2712.6,892,158,2.25017e-05,0.0000000411
289,2712.6,893,158,2.25146e-05,0.0000000413
290.5,2712.6,894,158,2.25287e-05,0.0000000414
292,2712.6,896,159,2.25441e-05,0.0000000416
293.5,2712.6,897,159,2.25612e-05,0.0000000418
295,2712.6,898,159,2.25803e-05,0.0000000419
296.5,2712.6,899,159,2.26017e-05,0.0000000421
298,2712.6,900,160,2.26258e-05,0.0000000423
299.5,2712.6,902,160,2.26529e-05,0.0000000425
300,2712.6,902,160,2.26627e-05,0.0000000425